Timestamp,Ax,Ay,Az,Gx,Gy,Gz
1834809834802941,0.5883893966674805,9.552519798278809,-0.36790260672569275,0.059323739260435104,-0.021991148591041565,-0.004398229531943798
1834809838818566,0.6287460923194885,9.544734001159668,-0.35056859254837036,0.05511749908328056,-0.021013764664530754,-0.007871435023844242
1834809840799816,0.6276830434799194,9.538394927978516,-0.3289250135421753,0.05478588491678238,-0.01904154196381569,-0.014189526438713074
1834809842799816,0.6209218502044678,9.537484169006348,-0.31168675422668457,0.05222025141119957,-0.015341443940997124,-0.018291050568223
1834809844799816,0.5951889753341675,9.544063568115234,-0.2680548131465912,0.04792674258351326,-0.008953538723289967,-0.02188642881810665
1834809848801379,0.5689963698387146,9.522372245788574,-0.21535365283489227,0.04038691893219948,-0.005235987715423107,-0.029914943501353264
1834809846799816,0.5847119092941284,9.544158935546875,-0.23666204512119293,0.043336525559425354,-0.005113814491778612,-0.026424285024404526
1834809850799816,0.5343188047409058,9.518301963806152,-0.2001265287399292,0.03799581900238991,-0.002914699725806713,-0.029304077848792076
1834809852799816,0.5052818655967712,9.52481460571289,-0.1801205724477768,0.032882001250982285,0.0015533430268988013,-0.027803095057606697
1834809854799816,0.4905048906803131,9.534764289855957,-0.16973932087421417,0.027872908860445023,0.00502654816955328,-0.031520646065473557
1834809856804504,0.46592122316360474,9.518455505371094,-0.14370957016944885,0.023841196671128273,0.007103490177541971,-0.03162536770105362
1834809858809191,0.44250592589378357,9.513456344604492,-0.12463255971670151,0.021764256060123444,0.008464846760034561,-0.0316777266561985
1834809860799816,0.40614280104637146,9.518445014953613,-0.09638097882270813,0.020717058330774307,0.011554080061614513,-0.03649483621120453
1834809862799816,0.3708714246749878,9.51937484741211,-0.05272989720106125,0.015690509229898453,0.013718287460505962,-0.03415609151124954
1834809864799816,0.3426772952079773,9.511234283447266,-0.03412216156721115,0.012234757654368877,0.01392772700637579,-0.029967302456498146
1834809866799816,0.31659966707229614,9.510965347290039,0.010754753835499287,0.011065387167036533,0.01432915311306715,-0.031433381140232086
1834809868810754,0.2937972843647003,9.487100601196289,0.04128561541438103,0.010175269097089767,0.01633628085255623,-0.02768092229962349
1834809870810754,0.2690029442310333,9.475580215454102,0.08004295080900192,0.012705996632575989,0.020664697512984276,-0.02577851340174675
1834809872799816,0.2342391163110733,9.46583080291748,0.14112383127212524,0.01581268385052681,0.024661501869559288,-0.027803095057606697
1834809874806066,0.21495142579078674,9.460535049438477,0.17935442924499512,0.013491394929587841,0.028187068179249763,-0.025237461552023888
1834809876799816,0.198958158493042,9.45559310913086,0.19884324073791504,0.010506882332265377,0.03269001841545105,-0.02122320421040058
1834809878799816,0.17988117039203644,9.460151672363281,0.24215912818908691,0.011990412138402462,0.036477379500865936,-0.021293016150593758
1834809880799816,0.1475307196378708,9.458417892456055,0.2725750803947449,0.01424188632518053,0.04080579802393913,-0.020717058330774307
1834809882799816,0.13580870628356934,9.477628707885742,0.2964979112148285,0.015376350842416286,0.04541346803307533,-0.015027284622192383
1834809884799816,0.1347169280052185,9.481086730957031,0.3150003254413605,0.017470745369791985,0.04864232614636421,-0.014538592658936977
1834809886806066,0.12387599796056747,9.500882148742676,0.32818758487701416,0.017924530431628227,0.053302355110645294,-0.013089969754219055
1834809888801379,0.11574528366327286,9.512249946594238,0.3355329930782318,0.019966566935181618,0.054768431931734085,-0.006649704650044441
1834809890804504,0.1052108034491539,9.518043518066406,0.32933682203292847,0.024591689929366112,0.05431464686989784,-0.00905825849622488
1834809892799816,0.09030928462743759,9.532169342041016,0.3343167304992676,0.024556782096624374,0.05738642439246178,-0.00938987173140049
1834809894801379,0.07530242949724197,9.524632453918457,0.33926793932914734,0.024242622777819633,0.0610516183078289,-0.003577925032004714
1834809896799816,0.06678865104913712,9.535003662109375,0.34083855152130127,0.02497566118836403,0.06230825558304787,-0.0057072266936302185
1834809898826379,0.03421793133020401,9.529478073120117,0.3459334075450897,0.0253421813249588,0.06386159360408783,-0.01186823844909668
1834809900806066,0.007125144358724356,9.51773738861084,0.3252187669277191,0.026738444343209267,0.06494370102882385,-0.013229595497250557
1834809902804504,-0.009998186491429806,9.515496253967285,0.3121272921562195,0.02954842336475849,0.06668902933597565,-0.011222466826438904
1834809904799816,-0.027236439287662506,9.499138832092285,0.2885587811470032,0.030665434896945953,0.06757915019989014,-0.004206243436783552
1834809906799816,-0.040366239845752716,9.495059967041016,0.2806291878223419,0.03303908184170723,0.06923720985651016,0.002949606394395232
1834809908799816,-0.05964435264468193,9.488240242004395,0.24293485283851624,0.035150930285453796,0.07187265902757645,0.006003932561725378
1834809910806066,-0.057355497032403946,9.485491752624512,0.22266075015068054,0.036826446652412415,0.0711221694946289,0.007557275705039501
1834809912799816,-0.07028418779373169,9.476835250854492,0.2050011307001114,0.037978366017341614,0.07103490084409714,0.006562437862157822
1834809914809191,-0.08657433092594147,9.463369369506836,0.17708472907543182,0.03825761750340462,0.06979571282863617,0.013840461149811745
1834809916857629,-0.10137049853801727,9.469633102416992,0.1523669958114624,0.03991568088531494,0.0682772770524025,0.026825711131095886
1834809918799816,-0.1257338970899582,9.443947792053223,0.11464395374059677,0.038955748081207275,0.06808529049158096,0.027454029768705368
1834809920799816,-0.13031160831451416,9.438987731933594,0.08652645349502563,0.04056145250797272,0.06531021744012833,0.02808234840631485
1834809922799816,-0.13014879822731018,9.433432579040527,0.0644710585474968,0.0440695621073246,0.05998696759343147,0.03618067502975464
1834809924799816,-0.12325350195169449,9.429802894592285,0.0270161721855402,0.044662974774837494,0.05487314984202385,0.03672172874212265
1834809926799816,-0.11384908109903336,9.423060417175293,-0.003983951639384031,0.04317944496870041,0.050474923104047775,0.03850196301937103
1834809928799816,-0.10560344904661179,9.430167198181152,-0.02319502644240856,0.04270820692181587,0.0449422262609005,0.04239404574036598
1834809930802941,-0.07812758535146713,9.435242652893066,-0.056081779301166534,0.04366813600063324,0.03851941600441933,0.04288274049758911
1834809932799816,-0.05810248479247093,9.436745643615723,-0.06869443506002426,0.042673300951719284,0.03256784379482269,0.0455181859433651
1834809934799816,-0.03447650372982025,9.438786506652832,-0.07056191563606262,0.04185299575328827,0.026825711131095886,0.04836307466030121
1834809936799816,2.2984336828812957E-4,9.432685852050781,-0.0874362513422966,0.0420449823141098,0.02330014482140541,0.048921577632427216
1834809938810754,0.019402610138058662,9.44102668762207,-0.1014375388622284,0.04153883457183838,0.018814649432897568,0.04890412464737892
1834809940799816,0.04458003491163254,9.451858520507812,-0.10576625168323517,0.03977605327963829,0.01532399095594883,0.04920083284378052
1834809942801379,0.07300399988889694,9.447816848754883,-0.11014284938573837,0.036791540682315826,0.014451325871050358,0.049933869391679764
1834809944799816,0.09509769082069397,9.454606056213379,-0.11217314004898071,0.03525565192103386,0.011309733614325523,0.05002113804221153
1834809946806066,0.10692504793405533,9.466233253479004,-0.10518206655979156,0.035674531012773514,0.010000736452639103,0.04766494035720825
1834809948799816,0.13215036690235138,9.464337348937988,-0.12022723257541656,0.03349286690354347,0.009634217247366905,0.04646066576242447
1834809950799816,0.14333607256412506,9.472774505615234,-0.13124056160449982,0.028501227498054504,0.0061610122211277485,0.04614650458097458
1834809952799816,0.16520948708057404,9.477380752563477,-0.13745589554309845,0.027436574921011925,0.006771877408027649,0.04120722413063049
1834809954801379,0.17672081291675568,9.480405807495117,-0.14555789530277252,0.027803095057606697,0.010384708642959595,0.04047418385744095
1834809956799816,0.18004396557807922,9.487091064453125,-0.1589941382408142,0.025586526840925217,0.010437068529427052,0.0460941456258297
1834809958801379,0.19688957929611206,9.48502254486084,-0.1681399941444397,0.021764256060123444,0.0080634206533432,0.04326671361923218
1834809960799816,0.21174319088459015,9.499828338623047,-0.18089629709720612,0.01682497374713421,0.008656833320856094,0.04092797264456749
1834809962799816,0.22160731256008148,9.498544692993164,-0.2025877684354782,0.015498523600399494,0.00954695139080286,0.04483750835061073
1834809964799816,0.23708343505859375,9.510066032409668,-0.21686679124832153,0.015428710728883743,0.009110618382692337,0.04323180392384529
1834809966806066,0.23897962272167206,9.506704330444336,-0.22648189961910248,0.009407324716448784,0.009180432185530663,0.0409105159342289
1834809968801379,0.2559497356414795,9.527170181274414,-0.24010969698429108,3.316125657875091E-4,0.00921533815562725,0.042725659906864166
1834809970802941,0.2797481119632721,9.53244686126709,-0.258219450712204,-0.0033684854861348867,0.007435102481395006,0.03914773464202881
1834809972799816,0.2896888554096222,9.542847633361816,-0.26116910576820374,-0.004363323096185923,0.008639379404485226,0.03703588619828224
1834809974799816,0.2909816801548004,9.552922248840332,-0.2539960741996765,-0.005777040030807257,0.012531463988125324,0.03865904361009598
1834809976799816,0.2855995297431946,9.553746223449707,-0.2631419003009796,-0.013386675156652927,0.011833332479000092,0.03529055789113045
1834809978824816,0.2935578525066376,9.545289039611816,-0.24450545012950897,-0.023544492200016975,0.011466813273727894,0.03176499158143997
1834809980799816,0.29790574312210083,9.543584823608398,-0.2292783409357071,-0.026337018236517906,0.012479104101657867,0.02967059798538685
1834809982799816,0.3010660707950592,9.543412208557129,-0.2068973332643509,-0.027750734239816666,0.014503685757517815,0.029216811060905457
1834809984799816,0.30399659276008606,9.561311721801758,-0.18097291886806488,-0.030578168109059334,0.01762782596051693,0.029880037531256676
1834809986806066,0.299524188041687,9.570189476013184,-0.16035404801368713,-0.03380702808499336,0.017121680080890656,0.03050835430622101
1834809988812316,0.2990645170211792,9.58161449432373,-0.12313857674598694,-0.036651913076639175,0.016859879717230797,0.03263765573501587
1834809990810754,0.28560909628868103,9.575016021728516,-0.08798212558031082,-0.03689625859260559,0.0161268413066864,0.03520328924059868
1834809992799816,0.25283727049827576,9.559012413024902,-0.04135265201330185,-0.036128316074609756,0.013055062852799892,0.036826446652412415
1834809994806066,0.2415749579668045,9.563955307006836,-0.03255156800150871,-0.03364994749426842,0.013596114702522755,0.040037851780653
1834809996799816,0.2608722150325775,9.573866844177246,-0.018990809097886086,-0.03207915276288986,0.01235693134367466,0.04288274049758911
1834809998799816,0.2826690375804901,9.584084510803223,4.5968673657625914E-4,-0.03157300502061844,0.010541788302361965,0.044628068804740906
1834810000799816,0.30080750584602356,9.595989227294922,0.028328193351626396,-0.033126350492239,0.009616764262318611,0.0452214814722538
1834810002799816,0.3032974898815155,9.611063003540039,0.06587885320186615,-0.03211405873298645,0.00823795422911644,0.0449247732758522
1834810004799816,0.30799010396003723,9.63317584991455,0.0973961278796196,-0.02799508161842823,0.010245082899928093,0.04536110535264015
1834810006806066,0.314569354057312,9.642484664916992,0.09901460260152817,-0.026808258146047592,0.011850785464048386,0.04619886353611946
1834810008801379,0.3232172131538391,9.646995544433594,0.10098742693662643,-0.02679080329835415,0.012374384328722954,0.04811872914433479
1834810010799816,0.3236481845378876,9.641900062561035,0.10825622826814651,-0.02888519875705242,0.015044738538563251,0.049096111208200455
1834810012799816,0.3213018774986267,9.645214080810547,0.11235509812831879,-0.0302465558052063,0.01970476657152176,0.05138249322772026
1834810014801379,0.33187466859817505,9.647464752197266,0.11259452253580093,-0.03003711625933647,0.022968532517552376,0.05345943570137024
1834810016806066,0.3513921797275543,9.637983322143555,0.12389514595270157,-0.028152160346508026,0.0246265958994627,0.05061454698443413
1834810018802941,0.3563242554664612,9.649648666381836,0.1307808756828308,-0.02776818908751011,0.027872908860445023,0.04616395756602287
1834810020799816,0.38225823640823364,9.64599895477295,0.13789643347263336,-0.024294983595609665,0.03012438304722309,0.04180063679814339
1834810022799816,0.38578251004219055,9.664339065551758,0.13550224900245667,-0.01682497374713421,0.03157300502061844,0.037489671260118484
1834810024799816,0.38721901178359985,9.667173385620117,0.14629530906677246,-0.016912240535020828,0.03200933709740639,0.04548327997326851
1834810026801379,0.3820188343524933,9.649226188659668,0.1303595006465912,-0.017558012157678604,0.033737216144800186,0.056740652769804
1834810028801379,0.38578251004219055,9.647665977478027,0.10440634936094284,-0.016091935336589813,0.03522074595093727,0.05049237608909607
1834810030799816,0.3780444264411926,9.635272979736328,0.0743064433336258,-0.015044738538563251,0.03447025269269943,0.04879940673708916
1834810032799816,0.37746983766555786,9.603363037109375,0.04794149473309517,-0.013002702966332436,0.03467969223856926,0.05873033031821251
1834810034799816,0.37567898631095886,9.552347183227539,0.043306320905685425,-0.010471975430846214,0.03179989755153656,0.057194437831640244
1834810036799816,0.3790596127510071,9.51756477355957,-0.03573106601834297,-0.006195918656885624,0.025830872356891632,0.04832816496491432
1834810038817004,0.40830716490745544,9.570773124694824,-0.08200619369745255,-0.007295476272702217,0.023108160123229027,0.052202798426151276
1834810040799816,0.4163995683193207,9.589639663696289,-0.09436985850334167,-0.007260569836944342,0.0228987205773592,0.05026548355817795
1834810042799816,0.418305367231369,9.575753211975098,-0.1120869442820549,-0.004258603323251009,0.0216071754693985,0.03640756756067276
1834810044799816,0.4150492250919342,9.530417442321777,-0.17067785561084747,-0.001518436474725604,0.02214822731912136,0.041032690554857254
1834810046806066,0.40236952900886536,9.492904663085938,-0.2090425342321396,-0.0013264502631500363,0.019111355766654015,0.04398229718208313
1834810048799816,0.3882245719432831,9.46812915802002,-0.2380315363407135,-0.004817108623683453,0.014590952545404434,0.037402406334877014
1834810050799816,0.3772878646850586,9.447347640991211,-0.27290070056915283,-0.0057072266936302185,0.0131772356107831,0.044226642698049545
1834810052799816,0.3790212571620941,9.4143648147583,-0.27681758999824524,-0.005846852902323008,0.007958701811730862,0.04890412464737892
1834810054801379,0.41013631224632263,9.406339645385742,-0.3481552302837372,-0.00563741335645318,0.0028972465079277754,0.04649557173252106
1834810056799816,0.44346362352371216,9.434016227722168,-0.39328116178512573,-0.004014257341623306,0.001518436474725604,0.047368235886096954
1834810058827941,0.4322587549686432,9.425674438476562,-0.42262446880340576,-0.0028972465079277754,2.2689280740451068E-4,0.04871213808655739
1834810060799816,0.40224501490592957,9.376479148864746,-0.44782108068466187,-0.00143117003608495,-0.00251327408477664,0.049096111208200455
1834810062799816,0.36275985836982727,9.332616806030273,-0.455061137676239,-0.0012740903766825795,-0.007522369269281626,0.05078908056020737
1834810064799816,0.34729334712028503,9.327972412109375,-0.46565306186676025,-0.0020943949930369854,-0.012164944782853127,0.052551861852407455
1834810066810754,0.3587471842765808,9.352096557617188,-0.5526200532913208,-0.0034208453726023436,-0.01722639985382557,0.05555383116006851
1834810068799816,0.36050930619239807,9.368473052978516,-0.6352487206459045,-0.006492624990642071,-0.024609142914414406,0.05377359315752983
1834810070799816,0.35934093594551086,9.391926765441895,-0.6836403608322144,-0.0074525559321045876,-0.03166027367115021,0.05138249322772026
1834810072799816,0.44665268063545227,9.547472953796387,-0.7376631498336792,-0.00823795422911644,-0.04064871743321419,0.05195845291018486
1834810074799816,0.5392125248908997,9.675803184509277,-0.7736431956291199,-0.010437068529427052,-0.04731587693095207,0.04295255243778229
1834810076799816,0.581838846206665,9.700654029846191,-0.7920210361480713,-0.0142593402415514,-0.051626838743686676,0.030281461775302887
1834810078809191,0.6096116304397583,9.633155822753906,-0.8010519742965698,-0.021903881803154945,-0.05380849912762642,0.029216811060905457
1834810080799816,0.5943366289138794,9.553803443908691,-0.8071045279502869,-0.02998475730419159,-0.05283111706376076,0.027785642072558403
1834810084809191,0.5547460913658142,9.449396133422852,-0.7634821534156799,-0.05094616115093231,-0.046966809779405594,0.026459190994501114
1834810082809191,0.5735836625099182,9.482561111450195,-0.7809119820594788,-0.03949680179357529,-0.05052728205919266,0.020751964300870895
1834810086799816,0.5444893836975098,9.408063888549805,-0.7786997556686401,-0.06126105785369873,-0.045151665806770325,0.035360369831323624
1834810088799816,0.5341846942901611,9.396312713623047,-0.8356050848960876,-0.07072073966264725,-0.04092797264456749,0.03150319308042526
1834810090806066,0.5434646606445312,9.465821266174316,-0.8067023158073425,-0.07972663640975952,-0.033684853464365005,0.02984512969851494
1834810092799816,0.5361958742141724,9.523751258850098,-0.7430740594863892,-0.08702211827039719,-0.030281461775302887,0.028989918529987335
1834810094799816,0.49855899810791016,9.560325622558594,-0.6693038940429688,-0.09402088820934296,-0.02975786291062832,0.02197369560599327
1834810096799816,0.453978955745697,9.593719482421875,-0.6048519611358643,-0.10269517451524734,-0.02679080329835415,0.023492131382226944
1834810098820129,0.41301894187927246,9.609617233276367,-0.5410704612731934,-0.10979866236448288,-0.022881265729665756,0.029356438666582108
1834810100799816,0.39847177267074585,9.656764030456543,-0.4783519208431244,-0.11281808465719223,-0.020001472905278206,0.028152160346508026
1834810102799816,0.4098202884197235,9.686824798583984,-0.4388667643070221,-0.11796680092811584,-0.019425515085458755,0.026633724570274353
1834810104799816,0.43449971079826355,9.7078275680542,-0.38363730907440186,-0.1229759007692337,-0.02033308520913124,0.02436479553580284
1834810106799816,0.47315171360969543,9.731836318969727,-0.2799588143825531,-0.12433725595474243,-0.01869247667491436,0.017523106187582016
1834810108799816,0.5052818655967712,9.745406150817871,-0.2027505785226822,-0.12772318720817566,-0.014852751977741718,0.019111355766654015
1834810110799816,0.522280752658844,9.744372367858887,-0.12223836779594421,-0.12945106625556946,-0.009913469664752483,0.023527037352323532
1834810112799816,0.5410704612731934,9.75600814819336,0.012507310137152672,-0.12822933495044708,-0.0049916417337954044,0.018884463235735893
1834810114806066,0.5458588004112244,9.769989967346191,0.0950210765004158,-0.12971286475658417,0.0013962633674964309,0.013823007233440876
1834810116799816,0.5478603839874268,9.779251098632812,0.16277697682380676,-0.1316501796245575,0.009738937020301819,0.012444197200238705
1834810118804504,0.5445851683616638,9.801153182983398,0.2322184145450592,-0.12966051697731018,0.014590952545404434,0.008447393774986267
1834810120799816,0.5467686057090759,9.812874794006348,0.27167487144470215,-0.1253320872783661,0.018273597583174706,0.0031066860537976027
1834810122799816,0.5461556911468506,9.815901756286621,0.3091680705547333,-0.12044516950845718,0.023439772427082062,-4.886921960860491E-4
1834810124799816,0.5178275108337402,9.839881896972656,0.3547153174877167,-0.11674506962299347,0.030264008790254593,-0.00502654816955328
1834810126801379,0.49758216738700867,9.860481262207031,0.37819766998291016,-0.11456341296434402,0.03824016451835632,-0.011536626145243645
1834810128802941,0.46023261547088623,9.856392860412598,0.3966904878616333,-0.11196286976337433,0.04380776360630989,-0.015446163713932037
1834810130812316,0.41057687997817993,9.84299373626709,0.4039593040943146,-0.11093312501907349,0.04813618212938309,-0.018046705052256584
1834810132799816,0.37025851011276245,9.834805488586426,0.40222588181495667,-0.11100293695926666,0.05513495206832886,-0.017872171476483345
1834810134799816,0.3284653425216675,9.823965072631836,0.3917488753795624,-0.11014772951602936,0.06290166825056076,-0.016283921897411346
1834810136801379,0.2646646499633789,9.811619758605957,0.3923713266849518,-0.10850711911916733,0.07014477998018265,-0.017558012157678604
1834810138807629,0.22827276587486267,9.79530143737793,0.380160927772522,-0.10616837441921234,0.07923794537782669,-0.016423547640442848
1834810140799816,0.1688295304775238,9.787439346313477,0.3483946621417999,-0.10377727448940277,0.08655087649822235,-0.014643312431871891
1834810142799816,0.12176909297704697,9.77294921875,0.3441808521747589,-0.10047860443592072,0.09208357334136963,-0.014032446779310703
1834810144801379,0.08977298438549042,9.760164260864258,0.33800381422042847,-0.099675752222538,0.09759881347417831,-0.011938052251935005
1834810146810754,0.05861963331699371,9.73876953125,0.3321140706539154,-0.09897761791944504,0.10070549696683884,-0.00905825849622488
1834810148801379,0.028950687497854233,9.719032287597656,0.3386933505535126,-0.09951867163181305,0.1011069267988205,-0.002809980185702443
1834810150799816,0.0043861777521669865,9.716398239135742,0.34624946117401123,-0.09470156580209732,0.1042834222316742,0.0045553091913461685
1834810152799816,-0.02941037341952324,9.713391304016113,0.371829092502594,-0.08386307209730148,0.1074250116944313,0.00502654816955328
1834810154799816,-0.03931279480457306,9.711801528930664,0.3781018853187561,-0.07923794537782669,0.11170107126235962,0.006457718089222908
1834810156799816,-0.05455906689167023,9.68459415435791,0.3720780909061432,-0.07688175141811371,0.11629128456115723,0.014695672318339348
1834810158799816,-0.06633853912353516,9.659751892089844,0.3722217381000519,-0.0702844113111496,0.11801916360855103,0.011990412138402462
1834810160807629,-0.07422982901334763,9.636613845825195,0.37786248326301575,-0.06543239206075668,0.12250465899705887,0.004921828396618366
1834810162799816,-0.0651605874300003,9.603229522705078,0.38980478048324585,-0.06354743987321854,0.12658873200416565,0.010908307507634163
1834810164799816,-0.06616616249084473,9.593652725219727,0.38243064284324646,-0.058398716151714325,0.12985248863697052,0.01785471849143505
1834810166799816,-0.07243896275758743,9.574786186218262,0.3879181146621704,-0.0512777715921402,0.1351233869791031,0.02019345946609974
1834810168799816,-0.08598056435585022,9.533949851989746,0.3852557837963104,-0.04225442185997963,0.13960888981819153,0.02108357660472393
1834810170802941,-0.08505161851644516,9.510917663574219,0.3537289500236511,-0.03286454826593399,0.1439896672964096,0.023928463459014893
1834810172799816,-0.08532934635877609,9.488614082336426,0.3269904851913452,-0.027785642072558403,0.14652039110660553,0.02808234840631485
1834810174799816,-0.09598833322525024,9.467937469482422,0.3031633794307709,-0.021293016150593758,0.14870205521583557,0.02480112947523594
1834810176799816,-0.09434112906455994,9.458619117736816,0.265852153301239,-0.016493361443281174,0.15191346406936646,0.03211405873298645
1834810178809191,-0.10267294198274612,9.441802978515625,0.2303413599729538,-0.014346606098115444,0.15414747595787048,0.04783947393298149
1834810180799816,-0.11831187456846237,9.424333572387695,0.17551414668560028,-0.009669124148786068,0.1535017043352127,0.04715879634022713
1834810182799816,-0.11582189798355103,9.420964241027832,0.12174037098884583,-0.00548033369705081,0.15226252377033234,0.047106437385082245
1834810184799816,-0.10261548310518265,9.409241676330566,0.07312849164009094,-0.0012391837080940604,0.15222761034965515,0.04797910153865814
1834810186807629,-0.09621817618608475,9.39306640625,2.8730419580824673E-4,0.0035953782498836517,0.15132004022598267,0.044226642698049545
1834810188799816,-0.09592129290103912,9.378671646118164,-0.052289362996816635,0.007260569836944342,0.15025539696216583,0.04890412464737892
1834810190799816,-0.09311529248952866,9.355812072753906,-0.08806831389665604,0.011536626145243645,0.14700908958911896,0.05429719388484955
1834810192799816,-0.09853576868772507,9.351790428161621,-0.15181154012680054,0.016999507322907448,0.14295992255210876,0.053441982716321945
1834810194806066,-0.09496361762285233,9.32799243927002,-0.1901858001947403,0.01918116770684719,0.1385093331336975,0.053302355110645294
1834810196799816,-0.08744582533836365,9.321019172668457,-0.2541780173778534,0.018797196447849274,0.13444271683692932,0.055920347571372986
1834810198818566,-0.09251195192337036,9.307517051696777,-0.345081090927124,0.019216075539588928,0.12966051697731018,0.05546656250953674
1834810200799816,-0.0907689779996872,9.305524826049805,-0.4273075461387634,0.02090904489159584,0.1221381425857544,0.05283111706376076
1834810202799816,-0.08175720274448395,9.310178756713867,-0.5444989204406738,0.01877974346280098,0.11112511157989502,0.05150466784834862
1834810204799816,-0.08038771897554398,9.333019256591797,-0.6829029321670532,0.012601276859641075,0.09920451790094376,0.05441936478018761
1834810206804504,-0.0843525156378746,9.350879669189453,-0.7753191590309143,0.0070685832761228085,0.08534660190343857,0.058887407183647156
1834810208801379,-0.06987238675355911,9.400277137756348,-0.893899142742157,0.0033335788175463676,0.07140141725540161,0.05757841095328331
1834810210804504,-0.06846459209918976,9.413023948669434,-0.919335126876831,-9.4247778179124E-4,0.061592668294906616,0.05541420355439186
1834810212799816,-0.08132623881101608,9.390298843383789,-0.8100637793540955,-0.002827433403581381,0.05749114602804184,0.05251695588231087
1834810214799816,-0.0812687799334526,9.350459098815918,-0.654440701007843,-0.002286381321027875,0.05930628627538681,0.04714134335517883
1834810216799816,-0.04147715121507645,9.314708709716797,-0.469139039516449,-0.004712388850748539,0.06532767415046692,0.04858996719121933
1834810218806066,0.021835118532180786,9.30443286895752,-0.3515166938304901,-0.005044001620262861,0.07347836345434189,0.05052728205919266
1834810220799816,0.1329452395439148,9.298274993896484,-0.2521381676197052,-0.0031241392716765404,0.08243189752101898,0.044628068804740906
1834810222799816,0.19105729460716248,9.296426773071289,-0.20261649787425995,-0.0015358896926045418,0.09267698228359222,0.03923500329256058
1834810224799816,0.22438457608222961,9.29386043548584,-0.1492832601070404,-7.330382941290736E-4,0.10150834918022156,0.033772122114896774
1834810226809191,0.24154621362686157,9.309134483337402,-0.05440583825111389,-9.250245057046413E-4,0.11109020560979843,0.025307273492217064
1834810228799816,0.2233598679304123,9.320704460144043,0.004118026699870825,0.002548180753365159,0.12405800074338913,0.02188642881810665
1834810230806066,0.19801005721092224,9.340470314025879,0.059845466166734695,0.006440265104174614,0.13786356151103973,0.019547687843441963
1834810232799816,0.14941734075546265,9.340126037597656,0.06688442081212997,0.009616764262318611,0.1511804163455963,0.015655603259801865
1834810234799816,0.1017727255821228,9.336974143981934,0.021365856751799583,0.016318827867507935,0.16336281597614288,0.00799360778182745
1834810236799816,0.06041049584746361,9.349357604980469,-0.04038539528846741,0.023335052654147148,0.17407913506031036,-0.0012915435945615172
1834810238807629,0.0018387469463050365,9.36412525177002,-0.13775278627872467,0.02600540593266487,0.18282324075698853,-0.0033335788175463676
1834810240799816,-0.042214564979076385,9.372093200683594,-0.21607191860675812,0.02736676298081875,0.19116590917110443,-0.007382742594927549
1834810242799816,-0.09430281817913055,9.365350723266602,-0.30334538221359253,0.029862582683563232,0.1978330761194229,-0.016929693520069122
1834810244799816,-0.15264472365379333,9.355171203613281,-0.4099065065383911,0.02963569015264511,0.20720548927783966,-0.016702800989151
1834810246806066,-0.1996668428182602,9.361635208129883,-0.4841459095478058,0.02802998758852482,0.21708405017852783,-0.009093165397644043
1834810248804504,-0.2585546374320984,9.364699363708496,-0.5752404928207397,0.027803095057606697,0.22361157834529877,-0.014206980355083942
1834810250801379,-0.2830425202846527,9.37147045135498,-0.6462141871452332,0.02918190509080887,0.22963297367095947,-0.018308503553271294
1834810252799816,-0.30415940284729004,9.360121726989746,-0.7116621136665344,0.025394540280103683,0.2330014556646347,-0.018901916220784187
1834810254799816,-0.3324301242828369,9.346264839172363,-0.7692378759384155,0.018971728160977364,0.2362128645181656,-0.025499260053038597
1834810256799816,-0.3589578866958618,9.354509353637695,-0.849395751953125,0.014800392091274261,0.24204225838184357,-0.027349309995770454
1834810258801379,-0.3690997064113617,9.361050605773926,-0.9033227562904358,0.01326450239866972,0.2477145791053772,-0.027698375284671783
1834810260799816,-0.40157467126846313,9.373577117919922,-0.9665392637252808,0.009791296906769276,0.2497042566537857,-0.029077185317873955
1834810262799816,-0.4226915240287781,9.368512153625488,-1.0322935581207275,5.410520825535059E-4,0.2480287402868271,-0.0303861815482378
1834810264799816,-0.45973461866378784,9.35925006866455,-1.0966018438339233,-0.0035604715812951326,0.24865706264972687,-0.03134611248970032
1834810266809191,-0.4969213604927063,9.357871055603027,-1.1608048677444458,-0.005654866807162762,0.25137975811958313,-0.034522611647844315
1834810268801379,-0.5230756402015686,9.37163257598877,-1.2045899629592896,-0.010629055090248585,0.2548704445362091,-0.03794345632195473
1834810270799816,-0.547946572303772,9.378854751586914,-1.2410775423049927,-0.01705186627805233,0.2563539743423462,-0.038205258548259735
1834810272799816,-0.5926893949508667,9.39720344543457,-1.303652286529541,-0.025411993265151978,0.2532123625278473,-0.04162610322237015
1834810274806066,-0.6200791001319885,9.411855697631836,-1.3510288000106812,-0.03087487444281578,0.25190338492393494,-0.04366813600063324
1834810276799816,-0.6651570796966553,9.432149887084961,-1.3849307298660278,-0.03605850040912628,0.25183355808258057,-0.041399210691452026
1834810278806066,-0.7100340723991394,9.476000785827637,-1.4365593194961548,-0.041695915162563324,0.250611811876297,-0.04475024342536926
1834810280799816,-0.7216890454292297,9.496400833129883,-1.4967877864837646,-0.04815363511443138,0.24848252534866333,-0.05035274848341942
1834810282799816,-0.7426334619522095,9.528980255126953,-1.550389289855957,-0.05925392732024193,0.24469515681266785,-0.052900929003953934
1834810284799816,-0.7708371877670288,9.562901496887207,-1.623575210571289,-0.07417649030685425,0.24247859418392181,-0.053005650639534
1834810286801379,-0.7828465104103088,9.598029136657715,-1.673221468925476,-0.09018116444349289,0.2410474270582199,-0.05305800959467888
1834810288799816,-0.787826418876648,9.657347679138184,-1.7247637510299683,-0.10492919385433197,0.23911011219024658,-0.05996951460838318
1834810290799816,-0.7758937478065491,9.681117057800293,-1.7528620958328247,-0.12082914263010025,0.23872613906860352,-0.06410594284534454
1834810292799816,-0.7651006579399109,9.690617561340332,-1.7699567079544067,-0.13461723923683167,0.2376440316438675,-0.06620033830404282
1834810294801379,-0.7493563890457153,9.703479766845703,-1.7828086614608765,-0.14854496717453003,0.23767893016338348,-0.07326892018318176
1834810296799816,-0.7446445822715759,9.71468448638916,-1.7845325469970703,-0.16582372784614563,0.23769639432430267,-0.07716100662946701
1834810298802941,-0.7485423684120178,9.720870971679688,-1.7790738344192505,-0.17791886627674103,0.23771384358406067,-0.0809483677148819
1834810300806066,-0.7612795233726501,9.730562210083008,-1.757401466369629,-0.18708184361457825,0.23741713166236877,-0.08766788989305496
1834810302802941,-0.7801649570465088,9.745589256286621,-1.7314866781234741,-0.2010444700717926,0.23427554965019226,-0.0886976346373558
1834810304799816,-0.8110789060592651,9.758392333984375,-1.7013293504714966,-0.21593213081359863,0.2269800752401352,-0.08532914519309998
1834810306801379,-0.8580723404884338,9.773581504821777,-1.6716699600219727,-0.22743386030197144,0.21666517853736877,-0.09079203009605408
1834810308801379,-0.894234299659729,9.790292739868164,-1.6279613971710205,-0.23717279732227325,0.20542524755001068,-0.09388125687837601
1834810310799816,-0.9309900999069214,9.821121215820312,-1.5961663722991943,-0.24813346564769745,0.19100883603096008,-0.08946557343006134
1834810312799816,-0.9736260175704956,9.848089218139648,-1.5559821128845215,-0.25851815938949585,0.1779712289571762,-0.09080947935581207
1834810314801379,-0.9966678619384766,9.858020782470703,-1.5165640115737915,-0.26890286803245544,0.16802284121513367,-0.09180431813001633
1834810316799816,-1.006819248199463,9.879528999328613,-1.4832558631896973,-0.27838000655174255,0.15877260267734528,-0.09199630469083786
1834810318799816,-0.9984204173088074,9.877403259277344,-1.406449794769287,-0.2883109450340271,0.15105824172496796,-0.09269443899393082
1834810320799816,-0.9708966612815857,9.879721641540527,-1.3443539142608643,-0.29906216263771057,0.14322172105312347,-0.09155996888875961
1834810322799816,-0.9587819576263428,9.873353004455566,-1.2768948078155518,-0.3102322816848755,0.1368512660264969,-0.09037315100431442
1834810324799816,-0.9307793974876404,9.8759765625,-1.1558152437210083,-0.32131510972976685,0.13388420641422272,-0.09007643908262253
1834810326799816,-0.8918497562408447,9.867176055908203,-1.054961919784546,-0.33115875720977783,0.13297663629055023,-0.08962265402078629
1834810328804504,-0.8472888469696045,9.865710258483887,-0.9207237362861633,-0.3415609300136566,0.13402383029460907,-0.08550368249416351
1834810330802941,-0.8041740655899048,9.873180389404297,-0.8094795942306519,-0.35016539692878723,0.13693852722644806,-0.08489281684160233
1834810332799816,-0.7485615015029907,9.877690315246582,-0.6841958165168762,-0.35873496532440186,0.13962633907794952,-0.0866905003786087
1834810334804504,-0.6808056235313416,9.904754638671875,-0.5267435312271118,-0.36878806352615356,0.14100514352321625,-0.08429940044879913
1834810336799816,-0.6091232299804688,9.933570861816406,-0.41195592284202576,-0.3730292320251465,0.14290755987167358,-0.08398524671792984
1834810338807629,-0.5501683950424194,9.955924034118652,-0.29421865940093994,-0.37278488278388977,0.14536847174167633,-0.08772024512290955
1834810340801379,-0.4642452895641327,10.004430770874023,-0.14824895560741425,-0.37924259901046753,0.14871950447559357,-0.08691739290952682
1834810342799816,-0.4132104814052582,10.035833358764648,-0.03474465385079384,-0.38374555110931396,0.15372860431671143,-0.0910189226269722
1834810344799816,-0.3479349613189697,10.04184627532959,0.06590758264064789,-0.37974873185157776,0.15866787731647491,-0.10119418799877167
1834810346807629,-0.2827264964580536,10.058979034423828,0.18494729697704315,-0.3750014305114746,0.16509069502353668,-0.10547024756669998
1834810348799816,-0.23943933844566345,10.055914878845215,0.26565101742744446,-0.3749839961528778,0.17074556648731232,-0.1091528907418251
1834810350799816,-0.20288465917110443,10.02936840057373,0.32345664501190186,-0.3746872842311859,0.1745329201221466,-0.11641345918178558
1834810352799816,-0.15930059552192688,10.024876594543457,0.4091307818889618,-0.373325914144516,0.18006561696529388,-0.12311552464962006
1834810354799816,-0.13632585108280182,9.998454093933105,0.4484722912311554,-0.37084755301475525,0.18797196447849274,-0.12833406031131744
1834810356799816,-0.1258009374141693,9.960577964782715,0.485477089881897,-0.36447709798812866,0.19889771938323975,-0.13667672872543335
1834810358809191,-0.12290873378515244,9.92322826385498,0.5364448428153992,-0.36273178458213806,0.21104520559310913,-0.14034192264080048
1834810360799816,-0.11786176264286041,9.887755393981934,0.5597547888755798,-0.3606548309326172,0.222930908203125,-0.14339624345302582
1834810362799816,-0.10930009186267853,9.856496810913086,0.5737656354904175,-0.356588214635849,0.23467697203159332,-0.15184363722801208
1834810364799816,-0.10152372717857361,9.809379577636719,0.5731527209281921,-0.3548254370689392,0.24815091490745544,-0.1546536237001419
1834810366799816,-0.11028650403022766,9.783445358276367,0.5603868365287781,-0.35241687297821045,0.26251497864723206,-0.15399040281772614
1834810368801379,-0.1267586201429367,9.719788551330566,0.5573030710220337,-0.3499908745288849,0.27522096037864685,-0.15604989230632782
1834810370799816,-0.137906014919281,9.687849998474121,0.5423920154571533,-0.3484724462032318,0.28529152274131775,-0.15680037438869476
1834810372799816,-0.14461936056613922,9.651151657104492,0.5046785473823547,-0.3455926477909088,0.29281389713287354,-0.15657348930835724
1834810374801379,-0.19102856516838074,9.607385635375977,0.4517858624458313,-0.34171801805496216,0.29906216263771057,-0.15856316685676575
1834810376799816,-0.21747012436389923,9.577879905700684,0.39217981696128845,-0.33976325392723083,0.30551987886428833,-0.15748105943202972
1834810380801379,-0.2590622007846832,9.505412101745605,0.2539960741996765,-0.33313098549842834,0.3124662935733795,-0.15603242814540863
1834810378806066,-0.24764665961265564,9.553199768066406,0.3196163773536682,-0.3363598585128784,0.31091296672821045,-0.15512485802173615
1834810382799816,-0.27460533380508423,9.465753555297852,0.22228726744651794,-0.3308795094490051,0.31445595622062683,-0.15678292512893677
1834810384799816,-0.30430305004119873,9.422160148620605,0.17973750829696655,-0.330041766166687,0.31667253375053406,-0.15566591918468475
1834810386807629,-0.3690997064113617,9.369153022766113,0.08841307461261749,-0.33169981837272644,0.3148050308227539,-0.14910347759723663
1834810388799816,-0.4064684212207794,9.335911750793457,0.035127729177474976,-0.3286629617214203,0.31354838609695435,-0.14697417616844177
1834810390799816,-0.42572736740112305,9.321690559387207,0.014010868035256863,-0.3238109350204468,0.31321677565574646,-0.1500634104013443
1834810392799816,-0.4267425239086151,9.310945510864258,0.038307227194309235,-0.3225368559360504,0.3130422532558441,-0.1402721107006073
1834810394799816,-0.4214848279953003,9.3029203414917,0.08299260586500168,-0.3233920633792877,0.31145399808883667,-0.13227850198745728
1834810396799816,-0.4129997789859772,9.290785789489746,0.14530888199806213,-0.3208264112472534,0.30944687128067017,-0.13358749449253082
1834810398818566,-0.39668092131614685,9.255313873291016,0.1964586228132248,-0.3111223876476288,0.3102148175239563,-0.12737412750720978
1834810400799816,-0.4045434892177582,9.216469764709473,0.210459902882576,-0.30140089988708496,0.3088185489177704,-0.11941542476415634
1834810402799816,-0.4123390018939972,9.170357704162598,0.2429061233997345,-0.29194122552871704,0.30600857734680176,-0.11716394871473312
1834810404799816,-0.39632657170295715,9.137125968933105,0.2655361294746399,-0.28382542729377747,0.3075619339942932,-0.10911798477172852
1834810406806066,-0.3742328882217407,9.114601135253906,0.29767587780952454,-0.27550020813941956,0.3128677308559418,-0.09723228961229324
1834810408806066,-0.3703925907611847,9.073535919189453,0.32836952805519104,-0.2646617293357849,0.31555551290512085,-0.09386380761861801
1834810410802941,-0.37860947847366333,9.033285140991211,0.3197983205318451,-0.2552543878555298,0.3148399293422699,-0.09005898982286453
1834810412799816,-0.3902261257171631,8.989949226379395,0.3136883080005646,-0.2453583925962448,0.3141592741012573,-0.08571311831474304
1834810414799816,-0.4254113435745239,8.951297760009766,0.28617411851882935,-0.23432789742946625,0.31353095173835754,-0.0838107094168663
1834810416799816,-0.4403511583805084,8.931541442871094,0.25662970542907715,-0.22331488132476807,0.31290262937545776,-0.07623597979545593
1834810418807629,-0.4495832026004791,8.906994819641113,0.2168189138174057,-0.21409954130649567,0.3119775950908661,-0.06789331138134003
1834810422799816,-0.5086816549301147,8.846718788146973,0.046457089483737946,-0.19589576125144958,0.31037190556526184,-0.05785766616463661
1834810424799816,-0.5263317227363586,8.824711799621582,-0.02533065341413021,-0.18814648687839508,0.31129691004753113,-0.05164429172873497
1834810420801379,-0.48475882411003113,8.871675491333008,0.12454637140035629,-0.20462240278720856,0.31031954288482666,-0.06244787946343422
1834810426809191,-0.5693507790565491,8.788750648498535,-0.13577038049697876,-0.18240435421466827,0.309359610080719,-0.043964844197034836
1834810428801379,-0.5712565183639526,8.767997741699219,-0.2177574336528778,-0.1779886782169342,0.305380254983902,-0.03527310490608215
1834810430799816,-0.5948633551597595,8.747139930725098,-0.299524188041687,-0.17002996802330017,0.2997603118419647,-0.025150194764137268
1834810432799816,-0.6222147345542908,8.71690559387207,-0.3898718059062958,-0.1641831248998642,0.2920983135700226,-0.015498523600399494
1834810434799816,-0.6498725414276123,8.682640075683594,-0.4730176329612732,-0.16180947422981262,0.2843141257762909,-0.008185594342648983
1834810436799816,-0.6576775908470154,8.663965225219727,-0.5248472690582275,-0.16179202497005463,0.27553513646125793,6.2831852119416E-4
1834810438799816,-0.6595834493637085,8.627994537353516,-0.5955433249473572,-0.15969762206077576,0.26808255910873413,0.012304571457207203
1834810440799816,-0.6582043170928955,8.617392539978027,-0.6169187426567078,-0.15531684458255768,0.26457446813583374,0.020961403846740723
1834810442799816,-0.663442850112915,8.601265907287598,-0.646022617816925,-0.15250687301158905,0.2585879862308502,0.029862582683563232
1834810444799816,-0.6707882881164551,8.601811408996582,-0.6871646046638489,-0.15135495364665985,0.25015804171562195,0.04009021446108818
1834810446802941,-0.6596217155456543,8.608199119567871,-0.706950306892395,-0.15077899396419525,0.2413615882396698,0.05009094998240471
1834810448799816,-0.636809766292572,8.612364768981934,-0.6853450536727905,-0.1462934911251068,0.23177972435951233,0.05939355492591858
1834810450806066,-0.6195523738861084,8.630464553833008,-0.679991602897644,-0.14220942556858063,0.22240731120109558,0.06862634420394897
1834810452799816,-0.6051392555236816,8.639974594116211,-0.6732686758041382,-0.14072589576244354,0.21404717862606049,0.076619952917099
1834810454806066,-0.612676203250885,8.640549659729004,-0.651548445224762,-0.1396612524986267,0.20947441458702087,0.08278096467256546
1834810456799816,-0.6005232334136963,8.654052734375,-0.6358233690261841,-0.13283701241016388,0.20774653553962708,0.0910363718867302
1834810458809191,-0.5857653617858887,8.6671724319458,-0.5936854481697083,-0.12636183202266693,0.2044827789068222,0.10241591930389404
1834810460799816,-0.5544013381004333,8.682438850402832,-0.5481476783752441,-0.12424998730421066,0.19921188056468964,0.11121238023042679
1834810462799816,-0.5297601819038391,8.702789306640625,-0.5227883458137512,-0.11988666653633118,0.19832175970077515,0.11929325759410858
1834810464799816,-0.49322471022605896,8.715689659118652,-0.49269795417785645,-0.11616911739110947,0.1984788477420807,0.12969541549682617
1834810466799816,-0.43770796060562134,8.74125862121582,-0.4575989544391632,-0.11187560111284256,0.19765853881835938,0.13381439447402954
1834810468806066,-0.4108162820339203,8.758918762207031,-0.4374110698699951,-0.10819295793771744,0.19753636419773102,0.14009757339954376
1834810470799816,-0.3670598566532135,8.779029846191406,-0.41778820753097534,-0.10810569673776627,0.19837412238121033,0.15138985216617584
1834810472799816,-0.3071760833263397,8.808067321777344,-0.41968441009521484,-0.10536552965641022,0.19999727606773376,0.15474088490009308
1834810474799816,-0.2674993574619293,8.832085609436035,-0.3987782299518585,-0.09768607467412949,0.20261527597904205,0.15645131468772888
1834810476799816,-0.2298433631658554,8.86125659942627,-0.40463924407958984,-0.09077457338571548,0.203365758061409,0.1621236354112625
1834810478804504,-0.17408718168735504,8.906842231750488,-0.41518330574035645,-0.08365362882614136,0.2016378939151764,0.16379915177822113
1834810480799816,-0.14483004808425903,8.944382667541504,-0.425890177488327,-0.07642796635627747,0.1998576521873474,0.16287413239479065
1834810482799816,-0.11716265231370926,8.974693298339844,-0.4272117614746094,-0.07005751878023148,0.19655898213386536,0.16538739204406738
1834810484799816,-0.08629661053419113,9.018268585205078,-0.4362235367298126,-0.06201154738664627,0.19397589564323425,0.16756905615329742
1834810486799816,-0.06087975949048996,9.047094345092773,-0.4255932867527008,-0.053127821534872055,0.19146262109279633,0.16718508303165436
1834810488813879,-0.0158783458173275,9.073765754699707,-0.41051942110061646,-0.048293258994817734,0.1877799779176712,0.17027431726455688
1834810490799816,0.017650054767727852,9.09390640258789,-0.38966110348701477,-0.04403465613722801,0.1829105019569397,0.17095500230789185
1834810492799816,0.06107129529118538,9.130719184875488,-0.35439932346343994,-0.03857177495956421,0.17954201996326447,0.16741198301315308
1834810494807629,0.10519164055585861,9.145103454589844,-0.34110668301582336,-0.03338814899325371,0.17901842296123505,0.17160077393054962
1834810496799816,0.12388557195663452,9.164361953735352,-0.3239259123802185,-0.023858651518821716,0.17634806036949158,0.17373007535934448
1834810498812316,0.1602870225906372,9.184329986572266,-0.3186490833759308,-0.01539380382746458,0.17259560525417328,0.17002996802330017
1834810500799816,0.19662141799926758,9.212054252624512,-0.3234853744506836,-0.006597344763576984,0.17067573964595795,0.1708328276872635
1834810502799816,0.21876299381256104,9.230480194091797,-0.3282354772090912,0.0011693706037476659,0.16940166056156158,0.16975072026252747
1834810504799816,0.24817337095737457,9.254547119140625,-0.3311946988105774,0.005427973810583353,0.16755160689353943,0.16919220983982086
1834810506809191,0.2870264947414398,9.285911560058594,-0.3508080244064331,0.011187560856342316,0.1627170443534851,0.17160077393054962
1834810508799816,0.2904454171657562,9.306827545166016,-0.35638171434402466,0.019826939329504967,0.15906931459903717,0.17013469338417053
1834810510799816,0.297896146774292,9.311280250549316,-0.3639090955257416,0.03050835430622101,0.15599752962589264,0.16699309647083282
1834810512799816,0.3160537779331207,9.32786750793457,-0.4241184592247009,0.035063665360212326,0.15144221484661102,0.1710771769285202
1834810514799816,0.32209673523902893,9.337530136108398,-0.4676450490951538,0.03467969223856926,0.14552555978298187,0.1719672977924347
1834810516799816,0.34727418422698975,9.371546745300293,-0.5369523763656616,0.0362853966653347,0.13920746743679047,0.16343262791633606
1834810518810754,0.3621852397918701,9.408839225769043,-0.572827160358429,0.03949680179357529,0.1350884884595871,0.16687092185020447
1834810520799816,0.39636486768722534,9.436382293701172,-0.5955049991607666,0.04352851212024689,0.13089969754219055,0.16742943227291107
1834810522799816,0.4250091016292572,9.479411125183105,-0.6099085211753845,0.04979424178600311,0.12426744401454926,0.15362387895584106
1834810524799816,0.4670991897583008,9.538796424865723,-0.6192075610160828,0.05417501926422119,0.12119566649198532,0.15259413421154022
1834810526812316,0.4925639033317566,9.55610179901123,-0.6191405653953552,0.054908059537410736,0.11812388151884079,0.1610415279865265
1834810528799816,0.5197524428367615,9.589284896850586,-0.6550631523132324,0.05948081985116005,0.11236429959535599,0.15367624163627625
1834810530799816,0.5282949805259705,9.615276336669922,-0.6718225479125977,0.0648040771484375,0.10883872956037521,0.14362314343452454
1834810532799816,0.5635951161384583,9.654397964477539,-0.6816004514694214,0.06600835174322128,0.1028347983956337,0.1400103121995926
1834810534799816,0.5894428491592407,9.706084251403809,-0.7008690237998962,0.06454227864742279,0.09798278659582138,0.13606587052345276
1834810536799816,0.6231053471565247,9.742514610290527,-0.7208750247955322,0.06377433240413666,0.09342747181653976,0.12955579161643982
1834810538804504,0.6429485082626343,9.77747917175293,-0.740947961807251,0.06370452046394348,0.08689994364976883,0.11784463375806808
1834810540801379,0.6882563233375549,9.813860893249512,-0.7460141181945801,0.0642455667257309,0.08326965570449829,0.11039207130670547
1834810542799816,0.7080899477005005,9.856133460998535,-0.7337653636932373,0.06873106211423874,0.08292059600353241,0.0990997925400734
1834810544799816,0.7341580390930176,9.912042617797852,-0.7405552864074707,0.07220426946878433,0.08365362882614136,0.0846659243106842
1834810546812316,0.7468089461326599,9.9485502243042,-0.7750222086906433,0.07159340381622314,0.08190830051898956,0.07520623505115509
1834810548801379,0.757918119430542,9.982853889465332,-0.7943482398986816,0.07307693362236023,0.0786445364356041,0.06438519805669785
1834810550799816,0.7606762051582336,10.002707481384277,-0.8016553521156311,0.07771950960159302,0.07696902006864548,0.0483979806303978
1834810552799816,0.7523443698883057,10.03117847442627,-0.780576765537262,0.07649777829647064,0.07552039623260498,0.04024729132652283
1834810554799816,0.7423844337463379,10.044595718383789,-0.7771769762039185,0.073164202272892,0.07208209484815598,0.02981022372841835
1834810556799816,0.7327502369880676,10.033984184265137,-0.7789199948310852,0.07176794111728668,0.0685390830039978,0.011588986031711102
1834810558799816,0.7198789715766907,10.052620887756348,-0.7586554288864136,0.07586946338415146,0.06731735169887543,0.003525565145537257
1834810560799816,0.6948164701461792,10.06895923614502,-0.7018937468528748,0.08243189752101898,0.06791076064109802,-0.005672320257872343
1834810562801379,0.6434560418128967,10.083085060119629,-0.6442700624465942,0.08819148689508438,0.069708451628685,-0.019058994948863983
1834810564799816,0.5887629389762878,10.085163116455078,-0.6116323471069336,0.09140289574861526,0.07182029634714127,-0.026773350313305855
1834810566802941,0.5368087887763977,10.093973159790039,-0.6138254404067993,0.09065239876508713,0.07438593357801437,-0.031293753534555435
1834810568804504,0.44802218675613403,10.084808349609375,-0.6413204073905945,0.09117600321769714,0.07780677825212479,-0.037803832441568375
1834810570806066,0.38131970167160034,10.093140602111816,-0.6615561842918396,0.09473647177219391,0.08283332735300064,-0.047106437385082245
1834810572799816,0.34162384271621704,10.097967147827148,-0.6845597624778748,0.09354964643716812,0.0895877480506897,-0.05784020945429802
1834810574799816,0.3104417622089386,10.116661071777344,-0.7394922971725464,0.08335692435503006,0.1008276715874672,-0.06270968168973923
1834810576799816,0.289775013923645,10.095830917358398,-0.7975372672080994,0.0754680335521698,0.11704178154468536,-0.06668902933597565
1834810578809191,0.2611978054046631,10.071889877319336,-0.8398668169975281,0.06726498901844025,0.13458234071731567,-0.07471754401922226
1834810580799816,0.22267033159732819,10.011374473571777,-0.8972318768501282,0.058276545256376266,0.1567131131887436,-0.07820820063352585
1834810582806066,0.18263928592205048,9.972434997558594,-0.918875515460968,0.045605454593896866,0.17816321551799774,-0.07997098565101624
1834810584799816,0.14839261770248413,9.94810962677002,-0.9546926617622375,0.029880037531256676,0.19538961350917816,-0.08358381688594818
1834810586801379,0.09128612279891968,9.954899787902832,-0.9759148955345154,0.01825614459812641,0.2119527906179428,-0.08061675727367401
1834810588799816,0.06552451103925705,9.964245796203613,-0.9905482530593872,0.012339477427303791,0.2269975244998932,-0.07611380517482758
1834810590799816,0.04043327644467354,9.985133171081543,-0.9947908520698547,0.010821041651070118,0.236753910779953,-0.07742280513048172
1834810592799816,-0.008025364018976688,10.03825569152832,-0.994800329208374,0.0052534411661326885,0.24591688811779022,-0.07508406043052673
1834810594810754,-0.0326952189207077,10.071056365966797,-0.9745741486549377,-5.585053586401045E-4,0.2520779073238373,-0.07360053062438965
1834810596799816,-0.05144660547375679,10.097832679748535,-0.9385749697685242,-0.0029321531765162945,0.25073400139808655,-0.0734434574842453
1834810598802941,-0.08918880671262741,10.131534576416016,-0.9113672375679016,-0.0023387412074953318,0.24584707617759705,-0.0688532367348671
1834810600799816,-0.1151706799864769,10.14287281036377,-0.9146425127983093,0.0018325956771150231,0.24036674201488495,-0.06562437862157822
1834810602799816,-0.15591999888420105,10.14575481414795,-0.9111086130142212,0.007260569836944342,0.23547981679439545,-0.05979498103260994
1834810604799816,-0.17673039436340332,10.129857063293457,-0.9390825033187866,0.01392772700637579,0.2266833633184433,-0.055920347571372986
1834810606799816,-0.21607191860675812,10.118452072143555,-0.9590309858322144,0.017016960307955742,0.21382027864456177,-0.05513495206832886
1834810608799816,-0.2628737688064575,10.103177070617676,-0.9969742894172668,0.017994344234466553,0.19888027012348175,-0.0391651876270771
1834810610799816,-0.29515719413757324,10.102660179138184,-1.0376852750778198,0.016406094655394554,0.18526670336723328,-0.026825711131095886
1834810612799816,-0.3223361372947693,10.100428581237793,-1.076385259628296,0.01797689124941826,0.17324137687683105,-0.025045474991202354
1834810614799816,-0.319865345954895,10.13228988647461,-1.1119630336761475,0.022392574697732925,0.1575334221124649,-0.007941247895359993
1834810616799816,-0.32464417815208435,10.157669067382812,-1.1259164810180664,0.0246265958994627,0.13514083623886108,0.004939281847327948
1834810618799816,-0.3356192111968994,10.197307586669922,-1.123713731765747,0.02905973233282566,0.10786134749650955,0.008517206646502018
1834810620799816,-0.31349676847457886,10.256673812866211,-1.1278318166732788,0.03162536770105362,0.08407250791788101,0.02591813914477825
1834810622799816,-0.2909625470638275,10.305132865905762,-1.1273434162139893,0.038030724972486496,0.06445500999689102,0.03778637945652008
1834810624799816,-0.2857910692691803,10.33747386932373,-1.1097890138626099,0.04878195375204086,0.03857177495956421,0.04052654653787613
1834810626812316,-0.2748256325721741,10.39323902130127,-1.088126301765442,0.05695009231567383,0.008621926419436932,0.05691518634557724
1834810628799816,-0.25248295068740845,10.448257446289062,-1.0545597076416016,0.06262241303920746,-0.02759365551173687,0.07124433666467667
1834810630799816,-0.22008459270000458,10.505681037902832,-1.0147680044174194,0.06880088150501251,-0.06644468754529953,0.07646287232637405
1834810632799816,-0.17267939448356628,10.57307243347168,-0.9422141313552856,0.08272860944271088,-0.10000736266374588,0.08719664812088013
1834810634799816,-0.13635456562042236,10.645511627197266,-0.8849160671234131,0.09611528366804123,-0.13149310648441315,0.09897761791944504
1834810636799816,-0.10738473385572433,10.709456443786621,-0.8043081164360046,0.1074424684047699,-0.16402603685855865,0.10826276987791061
1834810638804504,-0.06610869616270065,10.800607681274414,-0.6760172247886658,0.11920598894357681,-0.19437731802463531,0.11479030549526215
1834810640799816,-0.04043327644467354,10.837286949157715,-0.584003210067749,0.13117894530296326,-0.21612411737442017,0.12231267243623734
1834810642799816,0.026786329224705696,10.892133712768555,-0.44293689727783203,0.1480737328529358,-0.23261748254299164,0.13213887810707092
1834810644799816,0.06359957158565521,10.93066120147705,-0.34890222549438477,0.15847589075565338,-0.24820327758789062,0.13384929299354553
1834810646799816,0.11149318516254425,10.963902473449707,-0.2734752893447876,0.1658760905265808,-0.2615375816822052,0.13142329454421997
1834810648799816,0.17536091804504395,11.003884315490723,-0.16193422675132751,0.17594663798809052,-0.2716255784034729,0.1376890242099762
1834810650813879,0.22124339640140533,11.04220199584961,-0.08868122845888138,0.18765780329704285,-0.2758667469024658,0.14295992255210876
1834810652799816,0.2518029808998108,11.073230743408203,-0.05650315806269646,0.20142844319343567,-0.27352800965309143,0.1396612524986267
1834810654799816,0.2859155535697937,11.117369651794434,-0.012938265688717365,0.20783381164073944,-0.27084019780158997,0.14337879419326782
1834810656799816,0.31026938557624817,11.152593612670898,0.008149862289428711,0.2123018503189087,-0.26827454566955566,0.14556045830249786
1834810658806066,0.3363661766052246,11.197566032409668,0.012727576307952404,0.21846285462379456,-0.26398104429244995,0.14039428532123566
1834810660817004,0.3565541207790375,11.241888046264648,-0.01458547729998827,0.22130775451660156,-0.2548878788948059,0.14524629712104797
1834810662807629,0.3645986020565033,11.284246444702148,-0.04908113554120064,0.2209586799144745,-0.24486969411373138,0.149225652217865
1834810664799816,0.3619937002658844,11.328088760375977,-0.08901641517877579,0.22048744559288025,-0.2358637899160385,0.143448606133461
1834810666809191,0.3701052963733673,11.395758628845215,-0.1472625583410263,0.22083650529384613,-0.22499039769172668,0.14561282098293304
1834810668799816,0.38698920607566833,11.442445755004883,-0.17183664441108704,0.22132520377635956,-0.21584486961364746,0.14760249853134155
1834810670801379,0.39822277426719666,11.491641998291016,-0.22138704359531403,0.22247712314128876,-0.20820032060146332,0.140533909201622
1834810672799816,0.4143213927745819,11.548479080200195,-0.2497439682483673,0.22125539183616638,-0.19800759851932526,0.13932962715625763
1834810674806066,0.4140723943710327,11.592264175415039,-0.2846035361289978,0.21914353966712952,-0.18772761523723602,0.13990558683872223
1834810676809191,0.4194258451461792,11.65085506439209,-0.34690067172050476,0.21535617113113403,-0.17978636920452118,0.1348092257976532
1834810678801379,0.4224616587162018,11.694793701171875,-0.3853707015514374,0.213139608502388,-0.17154841125011444,0.13011430203914642
1834810680799816,0.4359745383262634,11.736673355102539,-0.4283609986305237,0.20991075038909912,-0.16435766220092773,0.12712977826595306
1834810682799816,0.4455513656139374,11.785533905029297,-0.4918552339076996,0.20556487143039703,-0.15589280426502228,0.12110839784145355
1834810684799816,0.4547833800315857,11.827164649963379,-0.5455331802368164,0.20125392079353333,-0.14768975973129272,0.11264354735612869
1834810686804504,0.4559709131717682,11.872482299804688,-0.6017299294471741,0.19336502254009247,-0.1417032778263092,0.10414379835128784
1834810688802941,0.45734041929244995,11.908357620239258,-0.6615179181098938,0.18875735998153687,-0.13386675715446472,0.096220001578331
1834810690806066,0.45780012011528015,11.937058448791504,-0.7119781374931335,0.18399260938167572,-0.12568116188049316,0.09037315100431442
1834810692799816,0.4396520256996155,11.939367294311523,-0.7638939619064331,0.17767451703548431,-0.12000884115695953,0.0844041258096695
1834810694799816,0.4189086854457855,11.95247745513916,-0.8382961750030518,0.16756905615329742,-0.11651817709207535,0.07686430215835571
1834810696799816,0.38668274879455566,11.95176887512207,-0.9105052947998047,0.15882496535778046,-0.11114256829023361,0.07122688740491867
1834810698799816,0.34119290113449097,11.935669898986816,-1.0020883083343506,0.1552644968032837,-0.10780898481607437,0.06386159360408783
1834810700799816,0.2953965961933136,11.919140815734863,-1.1586211919784546,0.14327408373355865,-0.10520844906568527,0.05412266030907631
1834810702799816,0.26069024205207825,11.922550201416016,-1.2876687049865723,0.12606513500213623,-0.1062905490398407,0.04616395756602287
1834810704799816,0.22626164555549622,11.91024398803711,-1.4116021394729614,0.10681415349245071,-0.11252138018608093,0.03881612420082092
1834810706807629,0.18253393471240997,11.90870189666748,-1.5819064378738403,0.08922123163938522,-0.1177922710776329,0.03565707802772522
1834810708802941,0.14754986763000488,11.907054901123047,-1.7108964920043945,0.07216936349868774,-0.12498302757740021,0.03015928901731968
1834810710806066,0.12401964515447617,11.912225723266602,-1.8266801834106445,0.04939281940460205,-0.13552480936050415,0.018971728160977364
1834810712799816,0.07341580092906952,11.9139404296875,-1.9827724695205688,0.026110125705599785,-0.14870205521583557,0.01326450239866972
1834810714799816,0.03818272799253464,11.914409637451172,-2.0811550617218018,0.003752457909286022,-0.16289158165454865,0.0070685832761228085
1834810716801379,-0.003265690989792347,11.919054985046387,-2.1961727142333984,-0.022602014243602753,-0.18181094527244568,-0.00296705961227417
1834810718812316,-0.032101456075906754,11.90096378326416,-2.2583930492401123,-0.04921828582882881,-0.19835667312145233,-0.008691739290952682
1834810720799816,-0.06330269575119019,11.893311500549316,-2.283867120742798,-0.07595673203468323,-0.21306979656219482,-0.012793263420462608
1834810722799816,-0.10077673941850662,11.868947982788086,-2.2969014644622803,-0.10576695203781128,-0.23134338855743408,-0.018186330795288086
1834810724799816,-0.11296801269054413,11.830995559692383,-2.2757365703582764,-0.13294172286987305,-0.24844761192798615,-0.02542944625020027
1834810726799816,-0.12260227650403976,11.814523696899414,-2.223083257675171,-0.16116370260715485,-0.2646617293357849,-0.03481931984424591
1834810728801379,-0.13126929104328156,11.805473327636719,-2.120668888092041,-0.1941329687833786,-0.278903603553772,-0.03839724510908127
1834810730806066,-0.130570188164711,11.77607250213623,-2.0246996879577637,-0.22230258584022522,-0.2912605404853821,-0.04351105913519859
1834810732799816,-0.1258392482995987,11.738377571105957,-1.9016473293304443,-0.2453583925962448,-0.30145326256752014,-0.05661848187446594
1834810734799816,-0.11609963327646255,11.694793701171875,-1.7130321264266968,-0.2756747603416443,-0.3087487518787384,-0.05668829381465912
1834810736804504,-0.11139741539955139,11.658431053161621,-1.5725691318511963,-0.3081902265548706,-0.315154105424881,-0.04984660446643829
1834810738806066,-0.07616434246301651,11.606706619262695,-1.3611611127853394,-0.33225831389427185,-0.31812116503715515,-0.04965461790561676
1834810740802941,-0.04943547770380974,11.573925971984863,-1.1789048910140991,-0.35351642966270447,-0.31784191727638245,-0.053441982716321945
1834810742810754,-0.02817496471107006,11.544668197631836,-1.0039366483688354,-0.37482690811157227,-0.32157692313194275,-0.07244861871004105
1834810744799816,0.002403778489679098,11.511685371398926,-0.8215559720993042,-0.3940778970718384,-0.32529446482658386,-0.09772098809480667
1834810746812316,0.030674513429403305,11.458927154541016,-0.5279693603515625,-0.41226422786712646,-0.322083055973053,-0.10491174459457397
1834810748799816,0.044752418994903564,11.421136856079102,-0.3073388934135437,-0.42903682589530945,-0.31866222620010376,-0.1088561862707138
1834810750799816,0.04901409521698952,11.368138313293457,-0.09119035303592682,-0.4426678419113159,-0.3142116367816925,-0.12046262621879578
1834810752799816,0.05566040053963661,11.29955005645752,0.19460070133209229,-0.4520053565502167,-0.3053627908229828,-0.12428489327430725
1834810754799816,0.0558040551841259,11.250008583068848,0.4084699749946594,-0.4579744040966034,-0.2951526343822479,-0.12592551112174988
1834810756799816,0.05073792114853859,11.165847778320312,0.690516471862793,-0.46130797266960144,-0.2842617630958557,-0.12826424837112427
1834810758799816,0.04874594509601593,11.107391357421875,0.9071917533874512,-0.46450191736221313,-0.2715208828449249,-0.12856094539165497
1834810760799816,0.05365884676575661,11.032548904418945,1.1182262897491455,-0.463733971118927,-0.2581341862678528,-0.129608154296875
1834810762799816,0.04607401788234711,10.931493759155273,1.377547025680542,-0.46094146370887756,-0.24591688811779022,-0.12924163043498993
1834810764799816,0.03865199163556099,10.857283592224121,1.5445953607559204,-0.4577300548553467,-0.23280946910381317,-0.12665854394435883
1834810766802941,0.027744008228182793,10.773773193359375,1.6993372440338135,-0.4476943910121918,-0.22102849185466766,-0.12234757840633392
1834810768806066,0.023262064903974533,10.658095359802246,1.8642786741256714,-0.4372049868106842,-0.21504200994968414,-0.11505210399627686
1834810770806066,0.012976572848856449,10.568120956420898,1.9403281211853027,-0.4279547333717346,-0.2116735279560089,-0.10924015939235687
1834810772799816,0.005832275375723839,10.506494522094727,2.0706875324249268,-0.41755256056785583,-0.20338322222232819,-0.10538297891616821
1834810774809191,-0.036966472864151,10.42470932006836,2.3389437198638916,-0.4017573297023773,-0.19285887479782104,-0.09323548525571823
1834810776799816,-0.0959787592291832,10.333575248718262,2.498110055923462,-0.38353610038757324,-0.18599973618984222,-0.07445574551820755
1834810778806066,-0.17445111274719238,10.230989456176758,2.655169725418091,-0.3646516501903534,-0.1785995364189148,-0.06188937649130821
1834810780801379,-0.20830513536930084,10.156126976013184,2.7681665420532227,-0.3427477478981018,-0.17243853211402893,-0.04649557173252106
1834810782799816,-0.20719420909881592,10.099068641662598,2.8683876991271973,-0.31869712471961975,-0.16870352625846863,-0.029077185317873955
1834810784799816,-0.20438821613788605,10.022416114807129,2.9972245693206787,-0.2935643792152405,-0.1650034338235855,-0.012705996632575989
1834810786801379,-0.19963811337947845,9.966065406799316,3.0910484790802,-0.2654820382595062,-0.16250760853290558,0.009407324716448784
1834810788807629,-0.17902882397174835,9.89167308807373,3.1911165714263916,-0.2358987033367157,-0.16573646664619446,0.02816961333155632
1834810790799816,-0.16685670614242554,9.812817573547363,3.3325753211975098,-0.20614083111286163,-0.17008233070373535,0.04642575979232788
1834810792799816,-0.15610194206237793,9.755634307861328,3.434156656265259,-0.1691049486398697,-0.17318901419639587,0.06829473376274109
1834810794801379,-0.13524366915225983,9.713553428649902,3.523824453353882,-0.13374458253383636,-0.1765749603509903,0.08873254060745239
1834810796799816,-0.10198341310024261,9.654044151306152,3.620866298675537,-0.09807004779577255,-0.18010053038597107,0.11173597723245621
1834810798801379,-0.07009264826774597,9.626720428466797,3.6990702152252197,-0.06010913848876953,-0.1848827302455902,0.133639857172966
1834810800799816,-0.04927267134189606,9.59644889831543,3.753725051879883,-0.02099631167948246,-0.18702948093414307,0.14840534329414368
1834810802799816,-0.0026527754962444305,9.565199851989746,3.8142218589782715,0.021991148591041565,-0.19141025841236115,0.16999506950378418
1834810804799816,0.029036877676844597,9.537542343139648,3.831144094467163,0.06457718461751938,-0.1987406462430954,0.19029325246810913
1834810806799816,0.05412811413407326,9.517305374145508,3.8326478004455566,0.10964158177375793,-0.20518091320991516,0.20242328941822052
1834810808804504,0.12295661866664886,9.50355339050293,3.826662063598633,0.1514771282672882,-0.20725785195827484,0.22300072014331818
1834810810806066,0.18421944975852966,9.489083290100098,3.7970218658447266,0.1877799779176712,-0.21101030707359314,0.23886576294898987
1834810812799816,0.25391945242881775,9.487369537353516,3.7608981132507324,0.226945161819458,-0.21502456068992615,0.243665412068367
1834810814801379,0.3423421084880829,9.492464065551758,3.7011005878448486,0.2663896083831787,-0.21467550098896027,0.26017624139785767
1834810816799816,0.4208432137966156,9.501705169677734,3.6250991821289062,0.3041585385799408,-0.21568778157234192,0.2799857258796692
1834810818804504,0.5025812387466431,9.507546424865723,3.4961185455322266,0.3386811316013336,-0.21650809049606323,0.2873859107494354
1834810820799816,0.5777304768562317,9.505267143249512,3.383514642715454,0.36854371428489685,-0.21451841294765472,0.290841668844223
1834810822799816,0.6315903663635254,9.501830101013184,3.252436876296997,0.39934879541397095,-0.2108183205127716,0.292011022567749
1834810824799816,0.7009265422821045,9.512067794799805,3.05361270904541,0.42523202300071716,-0.20863665640354156,0.29080677032470703
1834810826804504,0.7528135776519775,9.513561248779297,2.8846492767333984,0.4426155090332031,-0.20722293853759766,0.2881014943122864
1834810828799816,0.794089674949646,9.508102416992188,2.7270147800445557,0.4610636234283447,-0.20350539684295654,0.290911465883255
1834810830802941,0.8244098424911499,9.512019157409668,2.513145685195923,0.47764426469802856,-0.19861847162246704,0.3010343909263611
1834810832799816,0.8456990718841553,9.512019157409668,2.348252296447754,0.49118801951408386,-0.19312068819999695,0.29391345381736755
1834810834799816,0.8563675880432129,9.498420715332031,2.186634063720703,0.5040860176086426,-0.18613936007022858,0.28639107942581177
1834810836799816,0.8685876727104187,9.493019104003906,1.9617609977722168,0.5103517174720764,-0.17896606028079987,0.2912431061267853
1834810838799816,0.8844563961029053,9.485271453857422,1.8091353178024292,0.5147499442100525,-0.17203710973262787,0.279933363199234
1834810840799816,0.894234299659729,9.47035026550293,1.6742174625396729,0.5155004262924194,-0.16009904444217682,0.260385662317276
1834810842802941,0.9109458327293396,9.447539329528809,1.4924496412277222,0.5113814473152161,-0.14624114334583282,0.2555162012577057
1834810844799816,0.9093848466873169,9.43311595916748,1.3602416515350342,0.5113814473152161,-0.13648474216461182,0.2488490492105484
1834810846799816,0.8962741494178772,9.410725593566895,1.2168482542037964,0.5110673308372498,-0.1282118856906891,0.23315852880477905
1834810848799816,0.8839009404182434,9.388297080993652,1.0241819620132446,0.5046270489692688,-0.11920598894357681,0.22846360504627228
1834810850799816,0.8565974831581116,9.367850303649902,0.8598344922065735,0.498954713344574,-0.11070623248815536,0.2191784530878067
1834810852799816,0.8285565972328186,9.354290008544922,0.6972681283950806,0.48975685238838196,-0.10548769682645798,0.20156808197498322
1834810854799816,0.7903259992599487,9.315771102905273,0.47332409024238586,0.4749040901660919,-0.10012953728437424,0.19589576125144958
1834810856799816,0.7424036264419556,9.27945613861084,0.3032591640949249,0.45952773094177246,-0.09470156580209732,0.19449949264526367
1834810858799816,0.6601580381393433,9.264286994934082,0.09125739336013794,0.44600144028663635,-0.0898495465517044,0.1877974271774292
1834810860806066,0.6104831695556641,9.264612197875977,-0.060228537768125534,0.4364195764064789,-0.08527678996324539,0.1771858185529709
1834810862801379,0.5612870454788208,9.267149925231934,-0.18934305012226105,0.41805872321128845,-0.08623671531677246,0.1693841964006424
1834810864799816,0.5208538174629211,9.279772758483887,-0.3106141686439514,0.3949156403541565,-0.08943066745996475,0.16451473534107208
1834810866809191,0.4686218798160553,9.289712905883789,-0.4364246428012848,0.37683403491973877,-0.09435249865055084,0.15334463119506836
1834810868801379,0.43658745288848877,9.300200462341309,-0.5071781277656555,0.36163222789764404,-0.10135126858949661,0.14674727618694305
1834810870799816,0.39728423953056335,9.325884819030762,-0.5758150815963745,0.3430968225002289,-0.10941468924283981,0.14608405530452728
1834810872799816,0.3771250545978546,9.340910911560059,-0.634434700012207,0.3234618604183197,-0.11890928447246552,0.13437290489673615
1834810874799816,0.36775895953178406,9.347452163696289,-0.670031726360321,0.30656707286834717,-0.12854349613189697,0.12449433654546738
1834810876801379,0.3733518123626709,9.351531028747559,-0.6855940222740173,0.28478536009788513,-0.13974851369857788,0.12246975302696228
1834810878802941,0.3825263977050781,9.350516319274902,-0.683688223361969,0.26947882771492004,-0.1526464968919754,0.11334168165922165
1834810880799816,0.3875159025192261,9.350823402404785,-0.6667851805686951,0.2571917176246643,-0.16610299050807953,0.10299187898635864
1834810882799816,0.42003875970840454,9.35927963256836,-0.6424792408943176,0.2413441240787506,-0.17776177823543549,0.09323548525571823
1834810884799816,0.4388093054294586,9.368894577026367,-0.6096978187561035,0.22368139028549194,-0.18968237936496735,0.08766788989305496
1834810886806066,0.45477384328842163,9.372218132019043,-0.5913007855415344,0.2050936371088028,-0.20025907456874847,0.08452629297971725
1834810888804504,0.5005701184272766,9.375913619995117,-0.55962073802948,0.18903660774230957,-0.21043434739112854,0.07063347101211548
1834810890799816,0.5386953949928284,9.391112327575684,-0.5434167385101318,0.1745503842830658,-0.2186199426651001,0.05726425349712372
1834810892799816,0.5790233016014099,9.404672622680664,-0.5253739953041077,0.15938346087932587,-0.22340214252471924,0.049270644783973694
1834810894806066,0.6407266855239868,9.447778701782227,-0.48963338136672974,0.1399753987789154,-0.22792254388332367,0.036791540682315826
1834810896799816,0.6936097741127014,9.448525428771973,-0.4672045409679413,0.12020082771778107,-0.23052307963371277,0.02024581842124462
1834810898806066,0.7442806959152222,9.434514999389648,-0.47065216302871704,0.09752900153398514,-0.23364722728729248,0.0073303827084600925
1834810900806066,0.7811514139175415,9.419325828552246,-0.4849216043949127,0.07641051709651947,-0.2373473197221756,-0.004328416660428047
1834810902799816,0.816604733467102,9.396618843078613,-0.4804779589176178,0.055745817720890045,-0.23773129284381866,-0.014468779787421227
1834810904799816,0.8483518958091736,9.380894660949707,-0.47057557106018066,0.031433381140232086,-0.2379232794046402,-0.02143264375627041
1834810906810754,0.8628415465354919,9.365504264831543,-0.4517379701137543,0.011571533046662807,-0.24130922555923462,-0.03937462717294693
1834810908799816,0.8707711696624756,9.35012435913086,-0.4164665937423706,-0.0063355453312397,-0.24335125088691711,-0.0527089424431324
1834810910799816,0.850803554058075,9.342806816101074,-0.38312971591949463,-0.02715732343494892,-0.24558527767658234,-0.05590289458632469
1834810912799816,0.8275031447410583,9.336860656738281,-0.34171006083488464,-0.04944517835974693,-0.2500184178352356,-0.07010987401008606
1834810914809191,0.8039824962615967,9.336217880249023,-0.29236075282096863,-0.07009242475032806,-0.2528632879257202,-0.09023351967334747
1834810916802941,0.7828752398490906,9.311979293823242,-0.20101718604564667,-0.09108873456716537,-0.2558303475379944,-0.09569640457630157
1834810918801379,0.7813237905502319,9.313876152038574,-0.12338758260011673,-0.10718066990375519,-0.25972244143486023,-0.10327113419771194
1834810920799816,0.7810843586921692,9.30185604095459,-0.04175487905740738,-0.12227776646614075,-0.26111871004104614,-0.12091641128063202
1834810922801379,0.7961582541465759,9.288668632507324,0.04333505406975746,-0.14046409726142883,-0.2612234354019165,-0.1218239814043045
1834810924799816,0.8135880827903748,9.272408485412598,0.13120225071907043,-0.15481069684028625,-0.26427775621414185,-0.12437216192483902
1834810928802941,0.8444637060165405,9.207784652709961,0.30030950903892517,-0.1849525421857834,-0.2675240635871887,-0.13810789585113525
1834810926806066,0.8358637094497681,9.250869750976562,0.20774966478347778,-0.1702219545841217,-0.2670353651046753,-0.13526301085948944
1834810930799816,0.855802595615387,9.177157402038574,0.3858303725719452,-0.19636699557304382,-0.26628488302230835,-0.13987068831920624
1834810932799816,0.8635693788528442,9.144384384155273,0.46221500635147095,-0.20546016097068787,-0.263265460729599,-0.14405947923660278
1834810934801379,0.867151141166687,9.111105918884277,0.5714959502220154,-0.21729348599910736,-0.2587276101112366,-0.1491907387971878
1834810936799816,0.8702348470687866,9.088610649108887,0.6548429131507874,-0.2284112423658371,-0.2543119192123413,-0.15570081770420074
1834810938806066,0.8562718629837036,9.051663398742676,0.7290918827056885,-0.2367888242006302,-0.2502627670764923,-0.1584060788154602
1834810940802941,0.8452394008636475,9.033285140991211,0.7943673729896545,-0.242548406124115,-0.2425134927034378,-0.16339772939682007
1834810942802941,0.8273307681083679,9.018057823181152,0.8386313915252686,-0.24787165224552155,-0.23256511986255646,-0.1731192022562027
1834810944799816,0.811845064163208,9.006842613220215,0.8978447914123535,-0.25448647141456604,-0.22511257231235504,-0.1756848394870758
1834810946799816,0.7964455485343933,8.989566802978516,0.9211355447769165,-0.25905922055244446,-0.21710149943828583,-0.17758725583553314
1834810948799816,0.7844458222389221,8.977452278137207,0.9486784934997559,-0.2643824815750122,-0.2076418250799179,-0.179751455783844
1834810950799816,0.7479485869407654,8.964292526245117,0.9655145406723022,-0.26797786355018616,-0.20341812074184418,-0.17936748266220093
1834810952799816,0.7472686767578125,8.946374893188477,0.9555068016052246,-0.2698279023170471,-0.20127137005329132,-0.18484781682491302
1834810954799816,0.7360925078392029,8.927010536193848,0.9757808446884155,-0.2689726948738098,-0.19657643139362335,-0.1918465942144394
1834810956799816,0.7107905745506287,8.901689529418945,0.9636853933334351,-0.267925500869751,-0.19177678227424622,-0.19360937178134918
1834810958801379,0.6826156377792358,8.879777908325195,0.9526624083518982,-0.27008968591690063,-0.18814648687839508,-0.19600047171115875
1834810960799816,0.6657029986381531,8.864082336425781,0.9306453466415405,-0.2720968425273895,-0.18479545414447784,-0.20322613418102264
1834810962799816,0.6302784085273743,8.82227897644043,0.8904514908790588,-0.2722190022468567,-0.17978636920452118,-0.20750220119953156
1834810964799816,0.5983971953392029,8.78423023223877,0.8677448630332947,-0.2710845470428467,-0.17605136334896088,-0.20818287134170532
1834810966801379,0.5572839379310608,8.752388000488281,0.8329523205757141,-0.27230626344680786,-0.17442820966243744,-0.209125354886055
1834810968799816,0.5062970519065857,8.698355674743652,0.7738251090049744,-0.27412140369415283,-0.17331118881702423,-0.21020744740962982
1834810970799816,0.47298893332481384,8.668197631835938,0.7232404947280884,-0.2750464379787445,-0.17243853211402893,-0.2122494876384735
1834810972799816,0.4198184907436371,8.623071670532227,0.662351131439209,-0.277018666267395,-0.17289231717586517,-0.21418680250644684
1834810974799816,0.3774411082267761,8.58630657196045,0.6035686731338501,-0.27803096175193787,-0.17432348430156708,-0.2148849368095398
1834810976799816,0.3301795721054077,8.554444313049316,0.5528786778450012,-0.2791305184364319,-0.17205455899238586,-0.21464058756828308
1834810978807629,0.2645784318447113,8.505680084228516,0.49042826890945435,-0.2859896421432495,-0.17030923068523407,-0.21361084282398224
1834810980799816,0.21386924386024475,8.478021621704102,0.4488266408443451,-0.29307568073272705,-0.17240361869335175,-0.21308724582195282
1834810982799816,0.18196889758110046,8.462784767150879,0.4063534736633301,-0.294890820980072,-0.1713913381099701,-0.21162116527557373
1834810984799816,0.1291336715221405,8.447403907775879,0.39957311749458313,-0.30031880736351013,-0.17325884103775024,-0.20847958326339722
1834810986801379,0.09777919948101044,8.423959732055664,0.4072153866291046,-0.3069685101509094,-0.17631316184997559,-0.20987583696842194
1834810988799816,0.07693048566579819,8.392068862915039,0.41964608430862427,-0.31037190556526184,-0.1742711216211319,-0.20669934153556824
1834810990799816,0.05385996401309967,8.362190246582031,0.4461642801761627,-0.3135833144187927,-0.17413149774074554,-0.19938641786575317
1834810994799816,0.022898145020008087,8.315282821655273,0.5430145263671875,-0.3118554353713989,-0.17373007535934448,-0.20488420128822327
1834810992799816,0.03485957533121109,8.346962928771973,0.4832456707954407,-0.31344369053840637,-0.17585937678813934,-0.20045106112957
1834810996799816,-0.0012449849164113402,8.288352966308594,0.5958114862442017,-0.30895817279815674,-0.1690700501203537,-0.20444786548614502
1834810998799816,-0.009950302541255951,8.26533031463623,0.6345688104629517,-0.3089756369590759,-0.16608552634716034,-0.20092229545116425
1834811000799816,-0.019756952300667763,8.22919750213623,0.6640366315841675,-0.3107907772064209,-0.163066104054451,-0.19793778657913208
1834811002806066,-0.0409887321293354,8.196741104125977,0.6956784129142761,-0.30632272362709045,-0.15823155641555786,-0.19851374626159668
1834811004799816,-0.05527732893824577,8.176687240600586,0.7256729602813721,-0.30223867297172546,-0.15128514170646667,-0.19640189409255981
1834811006812316,-0.07176858931779861,8.145371437072754,0.735537052154541,-0.30346038937568665,-0.1411447823047638,-0.1857553869485855
1834811008809191,-0.1014375388622284,8.10331916809082,0.7399137020111084,-0.30318114161491394,-0.12908455729484558,-0.18540632724761963
1834811010809191,-0.12601162493228912,8.03971004486084,0.7362457513809204,-0.3030415177345276,-0.11545352637767792,-0.18343409895896912
1834811012799816,-0.16736426949501038,7.983724117279053,0.7339951992034912,-0.3050661087036133,-0.09742427617311478,-0.171059712767601
1834811014799816,-0.221339151263237,7.926799774169922,0.7224551439285278,-0.30518826842308044,-0.08134979754686356,-0.16863371431827545
1834811016799816,-0.26162877678871155,7.888808727264404,0.7296090126037598,-0.30436795949935913,-0.06716027110815048,-0.16980308294296265
1834811018806066,-0.31103551387786865,7.849466800689697,0.7165079116821289,-0.3039490878582001,-0.053040556609630585,-0.16020376980304718
1834811020799816,-0.3385784327983856,7.862539291381836,0.7168335318565369,-0.301331102848053,-0.04016002640128136,-0.15112805366516113
1834811022799816,-0.3777284324169159,7.870420932769775,0.7164696455001831,-0.29820695519447327,-0.02998475730419159,-0.14768975973129272
1834811024799816,-0.4004445970058441,7.891403675079346,0.7040101885795593,-0.29391345381736755,-0.023317597806453705,-0.13725268840789795
1834811026810754,-0.42230844497680664,7.901947975158691,0.6871262788772583,-0.2863387167453766,-0.01961750164628029,-0.12594296038150787
1834811028799816,-0.43949881196022034,7.912740707397461,0.6853354573249817,-0.2794795632362366,-0.01802925020456314,-0.1186823919415474
1834811030799816,-0.4370758831501007,7.927402973175049,0.6603208184242249,-0.27057838439941406,-0.016318827867507935,-0.11049679666757584
1834811032799816,-0.44486182928085327,7.9294328689575195,0.6470856666564941,-0.2588672339916229,-0.015446163713932037,-0.10152580589056015
1834811034799816,-0.44015005230903625,7.923371315002441,0.6331034898757935,-0.24720843136310577,-0.01589994877576828,-0.09365436434745789
1834811036799816,-0.417883962392807,7.906094551086426,0.6236129403114319,-0.23795819282531738,-0.019425515085458755,-0.08246680349111557
1834811038802941,-0.3985483944416046,7.907914161682129,0.6295409798622131,-0.22457151114940643,-0.023631757125258446,-0.07675957679748535
1834811040799816,-0.37990233302116394,7.920871734619141,0.6380739212036133,-0.20785126090049744,-0.026057764887809753,-0.07923794537782669
1834811042799816,-0.35273292660713196,7.935993194580078,0.6390124559402466,-0.192440003156662,-0.02670353837311268,-0.06792821735143661
1834811044799816,-0.32629138231277466,7.962607383728027,0.6302784085273743,-0.1777094304561615,-0.031520646065473557,-0.05916666239500046
1834811046799816,-0.30788475275039673,8.003480911254883,0.6299431920051575,-0.16210618615150452,-0.04057890549302101,-0.06188937649130821
1834811048802941,-0.27725815773010254,8.054400444030762,0.6047370433807373,-0.14306463301181793,-0.04818854108452797,-0.050998520106077194
1834811050806066,-0.25290432572364807,8.086712837219238,0.5778453946113586,-0.1255764365196228,-0.05654866620898247,-0.04153883457183838
1834811052799816,-0.2168572098016739,8.103970527648926,0.5380536913871765,-0.11007791757583618,-0.06621779501438141,-0.040631264448165894
1834811054801379,-0.1817486435174942,8.120145797729492,0.45846089720726013,-0.09529497474431992,-0.07712610065937042,-0.034173548221588135
1834811056799816,-0.16972017288208008,8.127002716064453,0.41186973452568054,-0.08145451545715332,-0.09077457338571548,-0.028780478984117508
1834811058799816,-0.14033852517604828,8.156633377075195,0.33268868923187256,-0.06932447850704193,-0.10163052380084991,-0.022444933652877808
1834811060806066,-0.12602120637893677,8.165127754211426,0.25227224826812744,-0.06014404445886612,-0.10985102504491806,-0.018011797219514847
1834811062801379,-0.11762233823537827,8.177654266357422,0.1785404086112976,-0.04886921867728233,-0.12063715606927872,-0.018151424825191498
1834811064799816,-0.10876379162073135,8.216641426086426,0.1029602512717247,-0.038641590625047684,-0.13032373785972595,-0.011623892933130264
1834811066799816,-0.08240842074155807,8.25693130493164,0.060228537768125534,-0.030421089380979538,-0.14095279574394226,-0.007400196045637131
1834811068806066,-0.037550657987594604,8.281418800354004,0.018617311492562294,-0.02295107953250408,-0.14845770597457886,-0.0076445420272648335
1834811070799816,0.018598157912492752,8.31421947479248,-0.01713290810585022,-0.01912880875170231,-0.15318754315376282,-5.934119690209627E-4
1834811072799816,0.06175125017762184,8.338746070861816,-0.05252878740429878,-0.014189526438713074,-0.1612858772277832,0.0038920841179788113
1834811074806066,0.09872730076313019,8.360418319702148,-0.07789774239063263,-0.010471975430846214,-0.16931438446044922,0.0010995573829859495
1834811076799816,0.18583793938159943,8.398026466369629,-0.12669157981872559,-0.010978121310472488,-0.1731017529964447,0.0026703537441790104
1834811078801379,0.24977269768714905,8.41474723815918,-0.16621506214141846,-0.011833332479000092,-0.1777268797159195,0.0022689281031489372
1834811080799816,0.3097809851169586,8.448554039001465,-0.18284039199352264,-0.014974924735724926,-0.18217746913433075,-0.002722713630646467
1834811082801379,0.39198827743530273,8.477686882019043,-0.1945815533399582,-0.014765485189855099,-0.18444639444351196,-0.004363323096185923
1834811084799816,0.453557550907135,8.520791053771973,-0.19826863706111908,-0.011972958222031593,-0.18650588393211365,-0.006702064536511898
1834811086802941,0.5141404271125793,8.559126853942871,-0.1755620241165161,-0.012339477427303791,-0.18516197800636292,-0.01029744278639555
1834811088812316,0.5689868330955505,8.609711647033691,-0.12200852483510971,-0.014625859446823597,-0.18416714668273926,-0.019600046798586845
1834811090809191,0.610626757144928,8.640750885009766,-0.09294290840625763,-0.016702800989151,-0.18097318708896637,-0.02555162087082863
1834811092799816,0.6600143313407898,8.689276695251465,-0.03249410539865494,-0.01745329238474369,-0.17784905433654785,-0.023195425048470497
1834811094810754,0.6895109415054321,8.729901313781738,-0.012373235076665878,-0.019634954631328583,-0.1765575110912323,-0.03516838327050209
1834811096799816,0.7270424365997314,8.767671585083008,0.003371036145836115,-0.021031217649579048,-0.17318901419639587,-0.05654866620898247
1834811098807629,0.7704541087150574,8.81584358215332,0.013215992599725723,-0.02595304511487484,-0.1675865203142166,-0.06174974888563156
1834811100806066,0.7977575659751892,8.851584434509277,0.029898790642619133,-0.028448866680264473,-0.1584409922361374,-0.06890559941530228
1834811102806066,0.838478147983551,8.890609741210938,0.03998316824436188,-0.03003711625933647,-0.15077899396419525,-0.08752825856208801
1834811104799816,0.8650155067443848,8.931607246398926,0.030722396448254585,-0.03623303398489952,-0.1465902030467987,-0.09372418373823166
1834811106801379,0.8708382248878479,8.946815490722656,0.04488649219274521,-0.03848451003432274,-0.14385004341602325,-0.09957103431224823
1834811108801379,0.8661360144615173,8.962512016296387,0.07008306682109833,-0.03783873841166496,-0.1382475346326828,-0.11213740706443787
1834811110807629,0.8862472772598267,8.987565040588379,0.07137593626976013,-0.04110250249505043,-0.13091714680194855,-0.1221381425857544
1834811112801379,0.8917730450630188,9.008940696716309,0.0823509618639946,-0.046966809779405594,-0.12597785890102386,-0.13351768255233765
1834811114806066,0.9089730381965637,9.02744197845459,0.08083783090114594,-0.050248030573129654,-0.11775736510753632,-0.1486147791147232
1834811118799816,0.9097583889961243,9.064783096313477,0.11509406566619873,-0.05757841095328331,-0.10316640883684158,-0.1684766262769699
1834811116799816,0.9211355447769165,9.05737018585205,0.1011885404586792,-0.05372123420238495,-0.10967648774385452,-0.1584060788154602
1834811122799816,0.8774749040603638,9.056997299194336,0.16533400118350983,-0.06536258012056351,-0.08658578246831894,-0.19401079416275024
1834811120799816,0.8955846428871155,9.06287670135498,0.13814543187618256,-0.06014404445886612,-0.09536478668451309,-0.18500490486621857
1834811124799816,0.8475378155708313,9.043848037719727,0.1907316893339157,-0.07040657848119736,-0.07941248267889023,-0.2010095715522766
1834811126806066,0.8188169598579407,9.030717849731445,0.2040051370859146,-0.07178539037704468,-0.07066838443279266,-0.21146409213542938
1834811128806066,0.7635588049888611,9.012540817260742,0.22199995815753937,-0.07068583369255066,-0.0596204474568367,-0.2194925993680954
1834811130801379,0.705868124961853,9.00429630279541,0.23797407746315002,-0.07042403519153595,-0.048607420176267624,-0.22476349771022797
1834811132801379,0.6532052755355835,8.991347312927246,0.23610660433769226,-0.07298967242240906,-0.036686819046735764,-0.23076742887496948
1834811134802941,0.5868476033210754,8.98806381225586,0.26021143794059753,-0.07250097393989563,-0.024329889565706253,-0.23739968240261078
1834811136801379,0.5376706719398499,8.982077598571777,0.269970178604126,-0.06984807550907135,-0.012932890094816685,-0.24378758668899536
1834811138813879,0.46579670906066895,8.982614517211914,0.2690412402153015,-0.07269296050071716,-0.006841690745204687,-0.24404938519001007
1834811140799816,0.4054436981678009,8.976446151733398,0.2869594395160675,-0.07204718887805939,-0.002827433403581381,-0.24747022986412048
1834811142807629,0.34089604020118713,8.968267440795898,0.2937972843647003,-0.06752678751945496,0.00548033369705081,-0.25761058926582336
1834811144799816,0.24872882664203644,8.944028854370117,0.3008841276168823,-0.06372196972370148,0.01242674421519041,-0.2525840401649475
1834811146799816,0.1894388049840927,8.917520523071289,0.3136116862297058,-0.06267477571964264,0.014468779787421227,-0.24822072684764862
1834811148799816,0.12539871037006378,8.894478797912598,0.3204686939716339,-0.06035348400473595,0.020298179239034653,-0.25349161028862
1834811152799816,-4.5968673657625914E-4,8.83895206451416,0.3343454897403717,-0.04576253145933151,0.02782054804265499,-0.2361954003572464
1834811154806066,-0.05938578024506569,8.828043937683105,0.3239450752735138,-0.03914773464202881,0.026808258146047592,-0.22938862442970276
1834811150799816,0.0472806952893734,8.864158630371094,0.3270767033100128,-0.052866023033857346,0.02626720443367958,-0.24659757316112518
1834811156801379,-0.12431652843952179,8.802072525024414,0.3306584060192108,-0.03637266159057617,0.024486970156431198,-0.22202333807945251
1834811158799816,-0.1719324141740799,8.779662132263184,0.3350924551486969,-0.030176742002367973,0.0239110104739666,-0.21467550098896027
1834811160799816,-0.21245189011096954,8.767404556274414,0.33605971932411194,-0.021624628454446793,0.024818582460284233,-0.20463985204696655
1834811162801379,-0.24793393909931183,8.77597427368164,0.3567264676094055,-0.016057029366493225,0.024382250383496284,-0.19174186885356903
1834811164799816,-0.27538105845451355,8.777660369873047,0.38707536458969116,-0.00724311638623476,0.02295107953250408,-0.18126989901065826
1834811166802941,-0.30559590458869934,8.768054962158203,0.422921359539032,0.003228859044611454,0.02223549410700798,-0.17444565892219543
1834811168801379,-0.3590823709964752,8.785475730895996,0.46409207582473755,0.013072515837848186,0.020664697512984276,-0.1592787504196167
1834811170799816,-0.37630149722099304,8.805989265441895,0.5028685331344604,0.024085544049739838,0.019565140828490257,-0.14735814929008484
1834811172799816,-0.3751043677330017,8.803001403808594,0.5338782072067261,0.03358013555407524,0.017208946868777275,-0.14278538525104523
1834811174799816,-0.37073734402656555,8.810787200927734,0.5482913255691528,0.041119955480098724,0.01630137488245964,-0.1287529319524765
1834811176799816,-0.3718961477279663,8.8135347366333,0.5754703283309937,0.05124286562204361,0.021537363529205322,-0.10964158177375793
1834811178806066,-0.3550218343734741,8.83023738861084,0.6526402831077576,0.06300638616085052,0.025394540280103683,-0.09988519549369812
1834811180799816,-0.33712273836135864,8.843146324157715,0.7252324223518372,0.07529350370168686,0.029164452105760574,-0.08953539282083511
1834811182799816,-0.3132764995098114,8.862932205200195,0.7965700626373291,0.09232791513204575,0.032882001250982285,-0.07466518878936768
1834811184799816,-0.2909816801548004,8.878925323486328,0.8685110211372375,0.10791371017694473,0.03988077491521835,-0.06529276818037033
1834811186804504,-0.27906814217567444,8.884729385375977,0.8984289765357971,0.12093386054039001,0.04792674258351326,-0.05811946466565132
1834811188799816,-0.271808922290802,8.88571548461914,0.9365255236625671,0.13805554807186127,0.053529247641563416,-0.04996877536177635
1834811190802941,-0.25193706154823303,8.891912460327148,0.9666541814804077,0.16086699068546295,0.062081363052129745,-0.03923500329256058
1834811192799816,-0.2268170863389969,8.897313117980957,0.9966008067131042,0.17968164384365082,0.07093018293380737,-0.03166027367115021
1834811194804504,-0.20301872491836548,8.92024040222168,1.0120195150375366,0.19795523583889008,0.07663740962743759,-0.02750638872385025
1834811196799816,-0.169078528881073,8.958806037902832,1.0342090129852295,0.21415190398693085,0.08463101834058762,-0.014294246211647987
1834811198804504,-0.14179420471191406,8.972060203552246,1.0393708944320679,0.23109903931617737,0.09260717034339905,-0.006963863503187895
1834811200799816,-0.12302365899085999,9.000895500183105,1.0313167572021484,0.2514146864414215,0.09667378664016724,-0.008621926419436932
1834811202799816,-0.0990624949336052,9.034855842590332,0.9901748299598694,0.2695660889148712,0.10412634164094925,0.0033859387040138245
1834811204799816,-0.07646122574806213,9.053693771362305,0.9580733180046082,0.286897212266922,0.11393509060144424,0.01401499379426241
1834811206799816,-0.06527551263570786,9.067770957946777,0.8987450003623962,0.3029193580150604,0.12161453813314438,0.016441000625491142
1834811208813879,-0.05202121287584305,9.08752727508545,0.8040112257003784,0.3188716471195221,0.12911945581436157,0.0263544712215662
1834811210799816,-0.05657019838690758,9.103147506713867,0.7304613590240479,0.33449235558509827,0.13744467496871948,0.03380702808499336
1834811212799816,-0.05376419425010681,9.12949275970459,0.6233351826667786,0.34843751788139343,0.1428901106119156,0.03701843321323395
1834811214799816,-0.05197333171963692,9.14426040649414,0.5287163853645325,0.3591538667678833,0.14985397458076477,0.04312708601355553
1834811216799816,-0.05586151406168938,9.15026569366455,0.4246164560317993,0.37028905749320984,0.15760323405265808,0.04654793068766594
1834811222799816,-0.046907201409339905,9.209373474121094,0.07147171348333359,0.3884753882884979,0.17460273206233978,0.063372902572155
1834811220806066,-0.04699338972568512,9.195152282714844,0.185043066740036,0.3836757242679596,0.16912239789962769,0.06319837272167206
1834811218806066,-0.05519114062190056,9.172675132751465,0.2834543287754059,0.37777650356292725,0.1636420637369156,0.05639158934354782
1834811224799816,-0.036104559898376465,9.231505393981934,-0.056292470544576645,0.3945316672325134,0.17948965728282928,0.07033676654100418
1834811226799816,-0.01928768865764141,9.258502960205078,-0.15148593485355377,0.4006054103374481,0.1843765825033188,0.07510151714086533
1834811228799816,-0.007402871735394001,9.281429290771484,-0.2386731654405594,0.40310123562812805,0.1877799779176712,0.07782422751188278
1834811230799816,0.005736507475376129,9.32626724243164,-0.351909339427948,0.4043753445148468,0.1895078420639038,0.08491026610136032
1834811232799816,0.02611595205962658,9.363741874694824,-0.4342794418334961,0.4050211012363434,0.1900838017463684,0.09030333161354065
1834811234806066,0.04519294947385788,9.401665687561035,-0.5062779188156128,0.4086513817310333,0.18887953460216522,0.08976228535175323
1834811236799816,0.08676587045192719,9.473817825317383,-0.5823081731796265,0.4095938801765442,0.18915878236293793,0.0915774255990982
1834811238812316,0.1187140941619873,9.527582168579102,-0.6143521666526794,0.40737730264663696,0.18872244656085968,0.09341002255678177
1834811240799816,0.1579311192035675,9.582275390625,-0.6280373930931091,0.40564942359924316,0.1854935884475708,0.09314822405576706
1834811242799816,0.21426190435886383,9.64450454711914,-0.6375088691711426,0.40418335795402527,0.18324211239814758,0.09719738364219666
1834811244799816,0.24666981399059296,9.67743968963623,-0.630517840385437,0.40252527594566345,0.1812000870704651,0.09866346418857574
1834811246799816,0.2653254270553589,9.717203140258789,-0.6129060387611389,0.39988982677459717,0.17746508121490479,0.09672614932060242
1834811248801379,0.296268105506897,9.770210266113281,-0.5927373170852661,0.4012337327003479,0.17585937678813934,0.09543460607528687
1834811250806066,0.3196929693222046,9.798500061035156,-0.6077920794487,0.4067140817642212,0.1771334707736969,0.09388125687837601
1834811254799816,0.3581438362598419,9.855175971984863,-0.6297133564949036,0.4064348340034485,0.17783159017562866,0.09431759268045425
1834811252799816,0.343740314245224,9.828246116638184,-0.6294260025024414,0.40831977128982544,0.17779669165611267,0.0915774255990982
1834811256799816,0.38218164443969727,9.885735511779785,-0.6272808313369751,0.4075692892074585,0.17933258414268494,0.09958848357200623
1834811258799816,0.38534197211265564,9.919388771057129,-0.6457832455635071,0.4069409668445587,0.18041469156742096,0.09749408811330795
1834811260802941,0.38876089453697205,9.955138206481934,-0.6515676379203796,0.4075343906879425,0.18095573782920837,0.09402088820934296
1834811262799816,0.39978381991386414,9.992833137512207,-0.6622458100318909,0.4093320667743683,0.18123498558998108,0.09285151958465576
1834811264799816,0.4057118594646454,10.03629207611084,-0.7077835202217102,0.4060508608818054,0.17928022146224976,0.0904604122042656
1834811266799816,0.41145792603492737,10.060722351074219,-0.7384675741195679,0.40048325061798096,0.17737780511379242,0.08744099736213684
1834811268802941,0.424970805644989,10.097095489501953,-0.7721970677375793,0.394653856754303,0.17671458423137665,0.08442157506942749
1834811270799816,0.44396162033081055,10.144558906555176,-0.8263251781463623,0.3925769031047821,0.1742885857820511,0.08375835418701172
1834811272799816,0.45563575625419617,10.180336952209473,-0.8601791858673096,0.3897145688533783,0.17093755304813385,0.08283332735300064
1834811274801379,0.46311524510383606,10.220664978027344,-0.8792466521263123,0.38496726751327515,0.16624261438846588,0.07906341552734375
1834811276799816,0.4845481216907501,10.291217803955078,-0.9171899557113647,0.37805578112602234,0.15875515341758728,0.0789412409067154
1834811278799816,0.5033473968505859,10.361655235290527,-0.931995689868927,0.3727325201034546,0.15165166556835175,0.07559020817279816
1834811280799816,0.5216869711875916,10.42622184753418,-0.9085229635238647,0.3709173798561096,0.14652039110660553,0.07387978583574295
1834811282799816,0.537239670753479,10.47075366973877,-0.904069721698761,0.3673045337200165,0.1397136002779007,0.0774926170706749
1834811284799816,0.5489904880523682,10.507011413574219,-0.8952303528785706,0.36365678906440735,0.13145819306373596,0.0691499412059784
1834811286802941,0.562455415725708,10.548469543457031,-0.8699571490287781,0.3588047921657562,0.12395328283309937,0.05712462589144707
1834811288802941,0.582260251045227,10.601639747619629,-0.8393879532814026,0.35274848341941833,0.11744320392608643,0.05637413635849953
1834811290799816,0.6083953976631165,10.63396167755127,-0.8125154376029968,0.34606388211250305,0.11021754145622253,0.054506633430719376
1834811292799816,0.6375951170921326,10.687333106994629,-0.7740933299064636,0.33995524048805237,0.10444050282239914,0.045151665806770325
1834811294799816,0.6510313153266907,10.736586570739746,-0.7463014125823975,0.3326422870159149,0.10119418799877167,0.042184606194496155
1834811296799816,0.6797330379486084,10.77939510345459,-0.7303368449211121,0.3220306932926178,0.09775589406490326,0.042184606194496155
1834811298804504,0.7025737166404724,10.843378067016602,-0.6799437403678894,0.313338965177536,0.09180431813001633,0.03317870944738388
1834811300799816,0.7284789681434631,10.884730339050293,-0.6300868391990662,0.30531045794487,0.0875631719827652,0.025307273492217064
1834811302806066,0.7508695125579834,10.936636924743652,-0.5673204064369202,0.2970201373100281,0.08541641384363174,0.020088739693164825
1834811304799816,0.8020671606063843,11.009631156921387,-0.490945428609848,0.2897944748401642,0.08222246170043945,0.012042772024869919
1834811306802941,0.8390527963638306,11.06381607055664,-0.41351693868637085,0.28581511974334717,0.08089601248502731,0.003752457909286022
1834811308799816,0.8680417537689209,11.111940383911133,-0.3258987367153168,0.28408724069595337,0.08171631395816803,-0.00855211354792118
1834811310801379,0.9097295999526978,11.190469741821289,-0.2030857652425766,0.27811822295188904,0.08302531391382217,-0.014835298992693424
1834811312799816,0.9562154412269592,11.258954048156738,-0.09517430514097214,0.2744704782962799,0.08250171691179276,-0.02431243658065796
1834811314801379,0.9788166880607605,11.323213577270508,-0.016979679465293884,0.2750115394592285,0.08313003182411194,-0.044139377772808075
1834811316799816,1.0073268413543701,11.394455909729004,0.10711658746004105,0.27440065145492554,0.08883725851774216,-0.05092870816588402
1834811318810754,1.0161662101745605,11.447665214538574,0.18949627876281738,0.27527332305908203,0.09354964643716812,-0.06009168550372124
1834811320799816,1.0190105438232422,11.496142387390137,0.2665416896343231,0.27722808718681335,0.09894271194934845,-0.08033750206232071
1834811322799816,0.998228907585144,11.551544189453125,0.3483084738254547,0.2800206243991852,0.11039207130670547,-0.08944812417030334
1834811324799816,0.9785676598548889,11.576663970947266,0.3841448724269867,0.28412213921546936,0.12250465899705887,-0.09889035671949387
1834811326799816,0.9501054286956787,11.597416877746582,0.40172791481018066,0.28562313318252563,0.13557717204093933,-0.11747810989618301
1834811328802941,0.893573522567749,11.626626968383789,0.40082767605781555,0.2839999794960022,0.1515120267868042,-0.12456414848566055
1834811330801379,0.8330385088920593,11.666284561157227,0.3617447316646576,0.28016024827957153,0.16324064135551453,-0.13056808710098267
1834811332799816,0.7467706799507141,11.689871788024902,0.28025567531585693,0.27433085441589355,0.17489944398403168,-0.14500194787979126
1834811334799816,0.664218544960022,11.702178001403809,0.1944379061460495,0.2713463306427002,0.19252726435661316,-0.1529606580734253
1834811336799816,0.5920190215110779,11.718917846679688,0.0919564962387085,0.26803022623062134,0.20811305940151215,-0.15791739523410797
1834811338806066,0.4745786786079407,11.732526779174805,-0.09763554483652115,0.26513296365737915,0.2232276052236557,-0.16254250705242157
1834811340801379,0.3731411099433899,11.739326477050781,-0.273149698972702,0.25827381014823914,0.23633503913879395,-0.1679006665945053
1834811342799816,0.27087998390197754,11.75339412689209,-0.46048158407211304,0.2427927553653717,0.2447998821735382,-0.17690657079219818
1834811344799816,0.13879665732383728,11.779003143310547,-0.7046040296554565,0.22980749607086182,0.2512226998806,-0.17880898714065552
1834811346799816,0.04127603769302368,11.795647621154785,-0.8725811839103699,0.21930061280727386,0.2517811954021454,-0.17648769915103912
1834811348806066,-0.05443457141518593,11.801201820373535,-1.0530561208724976,0.207362562417984,0.250576913356781,-0.1779886782169342
1834811350799816,-0.16984467208385468,11.797467231750488,-1.3007410764694214,0.18449875712394714,0.24607397615909576,-0.17006488144397736
1834811352799816,-0.2501557767391205,11.796920776367188,-1.4859181642532349,0.16055284440517426,0.2341882735490799,-0.16632987558841705
1834811354806066,-0.329068660736084,11.777106285095215,-1.6308248043060303,0.13877113163471222,0.21734584867954254,-0.17043140530586243
1834811356799816,-0.40417957305908203,11.78087043762207,-1.7796196937561035,0.11688470095396042,0.20067796111106873,-0.15903440117835999
1834811358802941,-0.4528105854988098,11.776139259338379,-1.8408920764923096,0.09314822405576706,0.18109536170959473,-0.1469218134880066
1834811360799816,-0.5190629363059998,11.753251075744629,-1.8515989780426025,0.06787585467100143,0.16093680262565613,-0.1359611451625824
1834811362799816,-0.5226350426673889,11.75606632232666,-1.7869938611984253,0.043912485241889954,0.14046409726142883,-0.11719886213541031
1834811364799816,-0.5150885581970215,11.775593757629395,-1.7382478713989258,0.021816615015268326,0.11506956070661545,-0.11063642054796219
1834811366802941,-0.49765875935554504,11.808470726013184,-1.6129546165466309,0.0018675023457035422,0.08773770183324814,-0.10908307880163193
1834811368799816,-0.4815026819705963,11.834969520568848,-1.4765042066574097,-0.023858651518821716,0.059725165367126465,-0.09421287477016449
1834811370799816,-0.4584513306617737,11.887517929077148,-1.2816832065582275,-0.042673300951719284,0.032882001250982285,-0.08454374969005585
1834811372799816,-0.38707536458969116,11.95287036895752,-0.9771503210067749,-0.05555383116006851,0.006021386012434959,-0.083514004945755
1834811374799816,-0.3345370292663574,12.009037971496582,-0.7194958925247192,-0.06721262633800507,-0.020839231088757515,-0.07189010828733444
1834811376799816,-0.27332204580307007,12.0736722946167,-0.45158475637435913,-0.0740368664264679,-0.04831071197986603,-0.05939355492591858
1834811378806066,-0.18829917907714844,12.155266761779785,-0.08419928699731827,-0.07843509316444397,-0.07309439033269882,-0.05480333790183067
1834811380799816,-0.11693280935287476,12.221566200256348,0.19949446618556976,-0.08276351541280746,-0.09531243145465851,-0.04977678880095482
1834811386806066,0.09412086009979248,12.303524017333984,1.120821475982666,-0.06993534415960312,-0.13152800500392914,-0.049357909709215164
1834811382799816,-0.05121676251292229,12.263781547546387,0.47672387957572937,-0.08436921238899231,-0.11383037269115448,-0.04452335089445114
1834811384799816,0.03384443745017052,12.296256065368652,0.8525656461715698,-0.07679449021816254,-0.12534955143928528,-0.04513421282172203
1834811388817004,0.1585153043270111,12.295681953430176,1.4221653938293457,-0.06555456668138504,-0.13407619297504425,-0.051801372319459915
1834811390807629,0.2028750777244568,12.285750389099121,1.6221386194229126,-0.05852089077234268,-0.1359785944223404,-0.05363396927714348
1834811392799816,0.2642240822315216,12.264634132385254,1.7998459339141846,-0.054628804326057434,-0.1330464482307434,-0.049183379858732224
1834811394799816,0.3031250834465027,12.249665260314941,1.9689148664474487,-0.05145230516791344,-0.12075933068990707,-0.0403171069920063
1834811396799816,0.35723403096199036,12.234149932861328,2.152176856994629,-0.04714134335517883,-0.10852457582950592,-0.043598324060440063
1834811398802941,0.3918159008026123,12.21423053741455,2.253039598464966,-0.04195771366357803,-0.09688322991132736,-0.04646066576242447
1834811400799816,0.4257656931877136,12.191743850708008,2.3202593326568604,-0.03691371530294418,-0.08316493779420853,-0.048834312707185745
1834811402799816,0.44300392270088196,12.17786693572998,2.3610658645629883,-0.03314380347728729,-0.0653974860906601,-0.05452408641576767
1834811404799816,0.4498513340950012,12.149107933044434,2.3608553409576416,-0.03211405873298645,-0.045553091913461685,-0.052639130502939224
1834811406809191,0.45967715978622437,12.092270851135254,2.3633644580841064,-0.033999014645814896,-0.028536133468151093,-0.04986405745148659
1834811408799816,0.4591887295246124,12.051223754882812,2.3595526218414307,-0.0325503908097744,-0.01448623277246952,-0.052953287959098816
1834811410799816,0.4569381773471832,12.005331993103027,2.364053964614868,-0.02733185514807701,-1.3962633966002613E-4,-0.05602506920695305
1834811412799816,0.47183969616889954,11.929052352905273,2.3569958209991455,-0.020472712814807892,0.012548916973173618,-0.056094881147146225
1834811414801379,0.45838427543640137,11.85512924194336,2.3606061935424805,-0.018168877810239792,0.024417156353592873,-0.05913175642490387
1834811416801379,0.45296379923820496,11.761812210083008,2.367673873901367,-0.015498523600399494,0.03885103017091751,-0.06246533244848251
1834811418806066,0.4413854479789734,11.648844718933105,2.3723762035369873,-0.010541788302361965,0.051312681287527084,-0.06356488913297653
1834811420806066,0.41312429308891296,11.55601692199707,2.3601179122924805,-0.005619960371404886,0.058538343757390976,-0.062343161553144455
1834811422802941,0.3796437680721283,11.412872314453125,2.3584322929382324,7.679448463022709E-4,0.06524040549993515,-0.05900958180427551
1834811424799816,0.3502621352672577,11.3074312210083,2.3540172576904297,0.0073129297234117985,0.07583455741405487,-0.056409042328596115
1834811426799816,0.31922370195388794,11.207239151000977,2.3422281742095947,0.01335176918655634,0.0890117883682251,-0.05628686770796776
1834811428799816,0.2847280502319336,11.107621192932129,2.3043136596679688,0.019425515085458755,0.10262536257505417,-0.05593780055642128
1834811430799816,0.2497631162405014,10.985755920410156,2.263669967651367,0.027314402163028717,0.1140572652220726,-0.05515240505337715
1834811434807629,0.14810532331466675,10.813661575317383,2.163007974624634,0.0377340167760849,0.13171999156475067,-0.0383099764585495
1834811432799816,0.2125859558582306,10.895054817199707,2.219856023788452,0.03223622962832451,0.12257447093725204,-0.049357909709215164
1834811436801379,0.08329906314611435,10.71158218383789,2.0591092109680176,0.045326199382543564,0.13906782865524292,-0.038379788398742676
1834811438807629,0.035434186458587646,10.63609790802002,2.0069730281829834,0.05249950289726257,0.14789919555187225,-0.03691371530294418
1834811440799816,-0.027092786505818367,10.560919761657715,1.943124532699585,0.0564439482986927,0.16079717874526978,-0.027488935738801956
1834811442799816,-0.07449797540903091,10.512374877929688,1.900718331336975,0.06206390634179115,0.17215926945209503,-0.031066861003637314
1834811444799816,-0.12533167004585266,10.44147777557373,1.8482184410095215,0.07180284708738327,0.18544122576713562,-0.03378957509994507
1834811446809191,-0.185454860329628,10.355276107788086,1.77437162399292,0.07798130810260773,0.1976061761379242,-0.027384215965867043
1834811448799816,-0.23643220961093903,10.290623664855957,1.7093929052352905,0.083514004945755,0.2073974758386612,-0.02652900479733944
1834811450799816,-0.29309818148612976,10.215139389038086,1.6231634616851807,0.09321803599596024,0.21807889640331268,-0.029077185317873955
1834811452799816,-0.36412933468818665,10.109190940856934,1.5029840469360352,0.10056587308645248,0.2304009199142456,-0.027977628633379936
1834811454799816,-0.4248271584510803,10.026131629943848,1.3714945316314697,0.09922196716070175,0.2393893599510193,-0.02263692021369934
1834811456799816,-0.4817516803741455,9.962608337402344,1.233597993850708,0.09883799403905869,0.24965189397335052,-0.014503685757517815
1834811458799816,-0.5769738554954529,9.871925354003906,1.0278211832046509,0.09923942387104034,0.26028093695640564,-0.013072515837848186
1834811460806066,-0.6518836617469788,9.817395210266113,0.8796201348304749,0.09583602845668793,0.26630234718322754,-0.008133234456181526
1834811462799816,-0.7249929904937744,9.758325576782227,0.7283735871315002,0.09112364053726196,0.2744530141353607,0.0045378562062978745
1834811464799816,-0.8230882287025452,9.701774597167969,0.5157972574234009,0.08421213924884796,0.2834065556526184,0.006510077975690365
1834811466799816,-0.9064351916313171,9.670372009277344,0.36573824286460876,0.08011060953140259,0.291557252407074,0.0030194194987416267
1834811468802941,-1.0192500352859497,9.620380401611328,0.14060667157173157,0.07410667836666107,0.2981196939945221,0.003351032268255949
1834811470806066,-1.1014477014541626,9.590118408203125,-0.02308010496199131,0.06415830552577972,0.30264008045196533,0.006806783843785524
1834811472799816,-1.1811745166778564,9.564204216003418,-0.17425958812236786,0.05190609022974968,0.3049613833427429,0.01665044017136097
1834811474799816,-1.255749225616455,9.53235149383545,-0.32583168148994446,0.03698352724313736,0.3070383071899414,0.027663469314575195
1834811476799816,-1.3615347146987915,9.5178804397583,-0.5068716406822205,0.021868975833058357,0.30569443106651306,0.03118903376162052
1834811478804504,-1.4320486783981323,9.50732707977295,-0.6284970641136169,0.0024958208668977022,0.30171507596969604,0.036564648151397705
1834811480799816,-1.5260066986083984,9.481690406799316,-0.7772823572158813,-0.015742870047688484,0.30059805512428284,0.047996554523706436
1834811482799816,-1.5750304460525513,9.469574928283691,-0.8796296715736389,-0.036739181727170944,0.2958158552646637,0.05412266030907631
1834811484799816,-1.6249830722808838,9.45738410949707,-0.9513983130455017,-0.05941100791096687,0.29309314489364624,0.05784020945429802
1834811486799816,-1.6650140285491943,9.458810806274414,-0.9753115773200989,-0.0826587900519371,0.2941054403781891,0.06454227864742279
1834811488806066,-1.6878833770751953,9.477476119995117,-0.9735782146453857,-0.11037462204694748,0.29340729117393494,0.07033676654100418
1834811490799816,-1.6910821199417114,9.510286331176758,-0.9601227641105652,-0.13648474216461182,0.2957634925842285,0.07480481266975403
1834811492799816,-1.6470671892166138,9.532973289489746,-0.9194692373275757,-0.1653699427843094,0.30085986852645874,0.08096582442522049
1834811494806066,-1.6030042171478271,9.51720142364502,-0.9027002453804016,-0.19896753132343292,0.30644491314888,0.08799950033426285
1834811496799816,-1.5528887510299683,9.475014686584473,-0.8649197220802307,-0.23226842284202576,0.31438615918159485,0.09548696130514145
1834811498807629,-1.493148684501648,9.403524398803711,-0.7898280024528503,-0.2609092593193054,0.3220306932926178,0.1007927656173706
1834811500799816,-1.481905460357666,9.363349914550781,-0.6823474764823914,-0.28239426016807556,0.3304082751274109,0.10679669678211212
1834811502801379,-1.4896913766860962,9.343850135803223,-0.5529744029045105,-0.2981371283531189,0.3406708240509033,0.11583749949932098
1834811504799816,-1.5216301679611206,9.365705490112305,-0.3688890039920807,-0.31874948740005493,0.34381240606307983,0.12044516950845718
1834811506804504,-1.5402569770812988,9.418511390686035,-0.20543208718299866,-0.34002503752708435,0.3427128493785858,0.12400564551353455
1834811508802941,-1.5701462030410767,9.500039100646973,-0.013359645381569862,-0.35177111625671387,0.33915236592292786,0.12939870357513428
1834811512799816,-1.6093536615371704,9.551993370056152,0.21266256272792816,-0.3619987368583679,0.3211056888103485,0.14905111491680145
1834811510806066,-1.5902670621871948,9.53502368927002,0.09953175485134125,-0.3571641743183136,0.33314844965934753,0.13784609735012054
1834811514799816,-1.6162298917770386,9.568388938903809,0.32425153255462646,-0.36566391587257385,0.30567696690559387,0.15744614601135254
1834811516799816,-1.6257586479187012,9.577008247375488,0.4980226755142212,-0.3657337427139282,0.29452431201934814,0.16802284121513367
1834811518809191,-1.6279997825622559,9.571338653564453,0.6363213658332825,-0.36278414726257324,0.2840348780155182,0.17610372602939606
1834811520799816,-1.6208553314208984,9.572486877441406,0.8188552856445312,-0.3585779070854187,0.2733010947704315,0.18111281096935272
1834811522799816,-1.6194859743118286,9.578779220581055,0.9663859605789185,-0.3540400266647339,0.26394614577293396,0.19655898213386536
1834811524799816,-1.6003611087799072,9.599905967712402,1.1141369342803955,-0.3490309417247772,0.2534741759300232,0.20950932800769806
1834811526799816,-1.5579549074172974,9.628005027770996,1.2961345911026,-0.34466761350631714,0.24155357480049133,0.21881192922592163
1834811530799816,-1.4774714708328247,9.618322372436523,1.5353728532791138,-0.33169981837272644,0.229824960231781,0.24794147908687592
1834811528799816,-1.5167651176452637,9.62877082824707,1.4227112531661987,-0.33885568380355835,0.23458971083164215,0.23314107954502106
1834811532799816,-1.4288691282272339,9.60725212097168,1.6956216096878052,-0.32566097378730774,0.22591541707515717,0.2614677846431732
1834811534799816,-1.392764687538147,9.597875595092773,1.796293020248413,-0.31929051876068115,0.2287079393863678,0.27555257081985474
1834811538806066,-1.3207852840423584,9.619921684265137,2.0214149951934814,-0.30520573258399963,0.2401922047138214,0.3029367923736572
1834811536799816,-1.3623486757278442,9.608793258666992,1.8909978866577148,-0.31094786524772644,0.23432789742946625,0.2917143404483795
1834811540799816,-1.2890477180480957,9.639495849609375,2.109349012374878,-0.2995683252811432,0.24527111649513245,0.31496211886405945
1834811542799816,-1.2567355632781982,9.652884483337402,2.1884536743164062,-0.29160961508750916,0.24816836416721344,0.3321710526943207
1834811544799816,-1.2360976934432983,9.689544677734375,2.2955894470214844,-0.2851518988609314,0.25502750277519226,0.3430269956588745
1834811546799816,-1.2180644273757935,9.72104263305664,2.357541799545288,-0.2776818871498108,0.26541221141815186,0.35156166553497314
1834811548799816,-1.164099097251892,9.755461692810059,2.4342901706695557,-0.2687632441520691,0.27579692006111145,0.36280158162117004
1834811550806066,-1.1188870668411255,9.782343864440918,2.4813122749328613,-0.2597399055957794,0.2837905287742615,0.37601372599601746
1834811552799816,-1.0669329166412354,9.817740440368652,2.515089750289917,-0.25274112820625305,0.2938610911369324,0.3908490240573883
1834811554801379,-0.9944173097610474,9.840465545654297,2.5501599311828613,-0.24558527767658234,0.30436795949935913,0.403781920671463
1834811556801379,-0.9020873308181763,9.861352920532227,2.564304828643799,-0.23863886296749115,0.3136356770992279,0.41547563672065735
1834811558801379,-0.8324639201164246,9.871053695678711,2.5804226398468018,-0.23090705275535583,0.32073915004730225,0.42442917823791504
1834811560799816,-0.7288811802864075,9.892898559570312,2.5775210857391357,-0.22097612917423248,0.32766810059547424,0.4319864511489868
1834811562799816,-0.6462812423706055,9.900579452514648,2.577434778213501,-0.2105216085910797,0.3338814973831177,0.4424235224723816
1834811564799816,-0.560923159122467,9.92166805267334,2.5667948722839355,-0.20069541037082672,0.33824479579925537,0.44804346561431885
1834811566799816,-0.43708544969558716,9.948243141174316,2.5374419689178467,-0.1923876404762268,0.34348079562187195,0.4491081237792969
1834811568799816,-0.3555198013782501,9.964715957641602,2.4915499687194824,-0.18067649006843567,0.3488389551639557,0.4556531012058258
1834811570799816,-0.2645305395126343,9.995542526245117,2.443589448928833,-0.17200219631195068,0.35185837745666504,0.4631754755973816
1834811572799816,-0.1428859531879425,10.053665161132812,2.4073410034179688,-0.16489870846271515,0.34981635212898254,0.46701520681381226
1834811574804504,-0.05421430245041847,10.09239387512207,2.3898441791534424,-0.1537809669971466,0.34517377614974976,0.468359112739563
1834811576799816,0.032024841755628586,10.105178833007812,2.3361949920654297,-0.14182545244693756,0.3412991464138031,0.46814966201782227
1834811578799816,0.15503892302513123,10.141465187072754,2.2929654121398926,-0.13123130798339844,0.33424800634384155,0.4668581187725067
1834811580801379,0.2562370300292969,10.165167808532715,2.248950242996216,-0.12224286049604416,0.3216641843318939,0.46499061584472656
1834811582799816,0.3501376211643219,10.194779396057129,2.2219533920288086,-0.11138691008090973,0.310459166765213,0.4616395831108093
1834811584799816,0.4828626215457916,10.213530540466309,2.2053565979003906,-0.09894271194934845,0.30264008045196533,0.454536110162735
1834811586801379,0.5829018950462341,10.217390060424805,2.180591106414795,-0.08782497048377991,0.2995683252811432,0.4464377760887146
1834811588806066,0.7118536233901978,10.212773323059082,2.163620948791504,-0.0797615498304367,0.29679325222969055,0.4381125569343567
1834811590806066,0.8123717904090881,10.227665901184082,2.1514103412628174,-0.07443828880786896,0.2914874255657196,0.4299618601799011
1834811592799816,0.9024416208267212,10.2258939743042,2.1562469005584717,-0.06754424422979355,0.2860943675041199,0.41893136501312256
1834811594799816,0.9972233176231384,10.218279838562012,2.141115427017212,-0.059236474335193634,0.28304004669189453,0.40282198786735535
1834811596799816,1.1072417497634888,10.194271087646484,2.114788770675659,-0.05201081186532974,0.2805965840816498,0.39070940017700195
