Timestamp,Ax,Ay,Az,Gx,Gy,Gz
1898832222120650,-0.23584802448749542,9.256807327270508,0.17265067994594574,0.0947713777422905,-0.044052109122276306,-0.011466813273727894
1898832226120650,-0.20832428336143494,9.244050979614258,-0.018713081255555153,0.11093312501907349,-0.0705811157822609,0.0019024088978767395
1898832224120650,-0.21466411650180817,9.244548797607422,0.0989188402891159,0.1036900132894516,-0.05686282739043236,-0.007749261800199747
1898832228120650,-0.22969970107078552,9.167858123779297,-0.1562647521495819,0.11552334576845169,-0.0826587900519371,0.014625859446823597
1898832230120650,-0.258928120136261,9.090190887451172,-0.21803516149520874,0.12025318294763565,-0.09000662714242935,0.022916173562407494
1898832232120650,-0.28563785552978516,9.041855812072754,-0.2559114396572113,0.12416272610425949,-0.09375908970832825,0.033126350492239
1898832234120650,-0.2935674488544464,8.987641334533691,-0.2821901738643646,0.1261698454618454,-0.09236282110214233,0.0452214814722538
1898832236120650,-0.28165391087532043,8.998424530029297,-0.29744604229927063,0.12447687983512878,-0.0892735943198204,0.050474923104047775
1898832238120650,-0.25092193484306335,9.033879280090332,-0.33089783787727356,0.12063715606927872,-0.0837932601571083,0.04986405745148659
1898832242120650,-0.16608098149299622,9.137969017028809,-0.5290802717208862,0.1068490594625473,-0.07941248267889023,0.054367005825042725
1898832240122212,-0.2027122676372528,9.099757194519043,-0.432929128408432,0.11506956070661545,-0.0789063349366188,0.05225515738129616
1898832244120650,-0.1378198266029358,9.16955280303955,-0.6347124576568604,0.09606292098760605,-0.08386307209730148,0.053930673748254776
1898832246120650,-0.10279744863510132,9.22163200378418,-0.7529094219207764,0.08428195118904114,-0.0936194583773613,0.05253440886735916
1898832248120650,-0.07965029776096344,9.245162010192871,-0.8094987273216248,0.0725882425904274,-0.1036900132894516,0.05359905958175659
1898832250120650,-0.05844724923372269,9.287060737609863,-0.8505832552909851,0.060929443687200546,-0.11210250109434128,0.05984733998775482
1898832252125337,-0.0075369467958807945,9.334158897399902,-0.8689515590667725,0.04420918971300125,-0.11969467997550964,0.06181956082582474
1898832256142525,0.07550355046987534,9.390279769897461,-0.7725705504417419,0.008464846760034561,-0.1273392289876938,0.06002187356352806
1898832254120650,0.03274310380220413,9.363540649414062,-0.8365819454193115,0.02488839440047741,-0.12416272610425949,0.059236474335193634
1898832258123775,0.11177091300487518,9.41661548614502,-0.7094594240188599,-0.004084070213139057,-0.12925907969474792,0.06101670861244202
1898832260120650,0.1656596064567566,9.437828063964844,-0.6516729593276978,-0.01918116770684719,-0.12993976473808289,0.06272713094949722
1898832262120650,0.22882822155952454,9.482015609741211,-0.6051201224327087,-0.03644247353076935,-0.13027137517929077,0.06419321149587631
1898832264120650,0.32728737592697144,9.537886619567871,-0.5644665360450745,-0.047944195568561554,-0.1313534826040268,0.05804964900016785
1898832266122212,0.38959407806396484,9.562106132507324,-0.5473241209983826,-0.057997290045022964,-0.132505401968956,0.054017938673496246
1898832268122212,0.47279736399650574,9.602472305297852,-0.5009052753448486,-0.06433283537626266,-0.13517574965953827,0.05227261036634445
1898832270120650,0.5255846977233887,9.643882751464844,-0.4545535445213318,-0.0714363232254982,-0.143431156873703,0.0414864756166935
1898832272133150,0.5736507773399353,9.672307014465332,-0.4072728455066681,-0.08134979754686356,-0.14884167909622192,0.02790781483054161
1898832274120650,0.6282959580421448,9.725419998168945,-0.298442006111145,-0.08820894360542297,-0.15130259096622467,0.020088739693164825
1898832276120650,0.6707786917686462,9.751181602478027,-0.22815784811973572,-0.0961850956082344,-0.15793484449386597,0.00921533815562725
1898832280120650,0.7128208875656128,9.805586814880371,-0.02161485329270363,-0.1071457639336586,-0.16638223826885223,-0.010908307507634163
1898832278120650,0.6977086663246155,9.77304458618164,-0.1457206904888153,-0.10266026854515076,-0.16432274878025055,-0.005305801052600145
1898832282120650,0.7200322151184082,9.825697898864746,0.07716032862663269,-0.11124728620052338,-0.16831955313682556,-0.015254177153110504
1898832284120650,0.7223497629165649,9.838005065917969,0.1748916506767273,-0.11271335929632187,-0.16840681433677673,-0.026476643979549408
1898832286120650,0.7077164053916931,9.857580184936523,0.2916233539581299,-0.11466813087463379,-0.1621759980916977,-0.03487167879939079
1898832288120650,0.7023534774780273,9.863757133483887,0.37965336441993713,-0.11716394871473312,-0.15299555659294128,-0.042760565876960754
1898832290120650,0.7151671648025513,9.860672950744629,0.4632492959499359,-0.11784463375806808,-0.14292500913143158,-0.05455899238586426
1898832292126900,0.6860441565513611,9.86290454864502,0.5571786761283875,-0.11758282780647278,-0.13210396468639374,-0.06058037653565407
1898832294120650,0.6696869730949402,9.851115226745605,0.6244460940361023,-0.11864747852087021,-0.1226966455578804,-0.06244787946343422
1898832298120650,0.6205005049705505,9.82455825805664,0.7532541751861572,-0.1146506816148758,-0.09953612834215164,-0.07623597979545593
1898832300120650,0.602706789970398,9.809715270996094,0.7866005897521973,-0.11475539952516556,-0.08393288403749466,-0.08030259609222412
1898832296130025,0.641559898853302,9.839249610900879,0.7043071389198303,-0.11679743230342865,-0.11250392347574234,-0.0705811157822609
1898832302120650,0.5728558301925659,9.788780212402344,0.812812328338623,-0.11241665482521057,-0.06548475474119186,-0.08686503767967224
1898832304120650,0.5406011939048767,9.762826919555664,0.8284800052642822,-0.1097288504242897,-0.0507018156349659,-0.09262461960315704
1898832306120650,0.49272671341896057,9.739832878112793,0.8227434754371643,-0.10595893859863281,-0.03988077491521835,-0.09585348516702652
1898832308133150,0.4295772314071655,9.717863082885742,0.8201290369033813,-0.1028347983956337,-0.030752701684832573,-0.09299114346504211
1898832310120650,0.386165589094162,9.693270683288574,0.8184147477149963,-0.10124655067920685,-0.020717058330774307,-0.09393361955881119
1898832312120650,0.3328419327735901,9.675371170043945,0.810877799987793,-0.09594074636697769,-0.009023352526128292,-0.09531243145465851
1898832314120650,0.27984386682510376,9.648920059204102,0.7735570073127747,-0.08995427191257477,5.235987482592463E-4,-0.09182177484035492
1898832316120650,0.2342199683189392,9.641469955444336,0.7658284902572632,-0.08539895713329315,0.008691739290952682,-0.09094911068677902
1898832318120650,0.18398961424827576,9.63978385925293,0.748628556728363,-0.07768460363149643,0.015254177153110504,-0.0889943391084671
1898832320122212,0.14468640089035034,9.6384916305542,0.7040581107139587,-0.07016223669052124,0.020385446026921272,-0.08831366151571274
1898832322120650,0.11338938772678375,9.648249626159668,0.6725695729255676,-0.06721262633800507,0.025411993265151978,-0.0852593332529068
1898832324120650,0.07776366919279099,9.656773567199707,0.6308817267417908,-0.0648215264081955,0.02825688011944294,-0.07592181861400604
1898832326120650,0.04956955462694168,9.667901039123535,0.5808046460151672,-0.05941100791096687,0.029112091287970543,-0.07625343650579453
1898832328122212,0.02852930873632431,9.6825532913208,0.5260826945304871,-0.053354714065790176,0.03104940801858902,-0.07463027536869049
1898832330120650,0.003849876346066594,9.69441032409668,0.4730559289455414,-0.04787437990307808,0.03352777659893036,-0.061505403369665146
1898832332126900,-0.009107543155550957,9.71735668182373,0.4132392406463623,-0.042987458407878876,0.030002210289239883,-0.06201154738664627
1898832334120650,-0.02201707847416401,9.722833633422852,0.3854185938835144,-0.03839724510908127,0.022218041121959686,-0.07096508890390396
1898832336130025,-0.03374866768717766,9.730132102966309,0.34302207827568054,-0.03694862127304077,0.016144296154379845,-0.06263986974954605
1898832338120650,-0.035367149859666824,9.744563102722168,0.328034371137619,-0.03981095924973488,0.008866272866725922,-0.054506633430719376
1898832340120650,-0.025627534836530685,9.751028060913086,0.3048584759235382,-0.035587262362241745,0.005148721393197775,-0.05276130139827728
1898832342120650,-0.02883576601743698,9.739928245544434,0.2735998034477234,-0.031031953170895576,0.0011519172694534063,-0.04616395756602287
1898832344120650,-0.030866049230098724,9.737035751342773,0.2634771168231964,-0.03230604529380798,-0.004747295752167702,-0.0452214814722538
1898832346120650,-0.02846227027475834,9.741969108581543,0.25794172286987305,-0.03504621237516403,-0.009267698042094707,-0.04323180392384529
1898832348126900,-0.02438254840672016,9.743481636047363,0.2596368193626404,-0.038554321974515915,-0.01516691129654646,-0.03712315484881401
1898832350120650,-0.027475858107209206,9.737821578979492,0.2588514983654022,-0.03553490340709686,-0.02117084339261055,-0.03761184588074684
1898832352120650,-0.03173753619194031,9.729930877685547,0.26809313893318176,-0.03220132365822792,-0.023020893335342407,-0.039357174187898636
1898832354120650,-0.03753150627017021,9.731558799743652,0.27934589982032776,-0.02989749051630497,-0.022776545956730843,-0.03574434295296669
1898832356120650,-0.0219213105738163,9.734824180603027,0.2961244583129883,-0.031433381140232086,-0.024748768657445908,-0.031206486746668816
1898832358120650,-0.026556486263871193,9.74520492553711,0.3110642731189728,-0.03790855035185814,-0.0263544712215662,-0.02830924093723297
1898832360126900,0.005688623525202274,9.74574089050293,0.34506192803382874,-0.03940953314304352,-0.025359634310007095,-0.03012438304722309
1898832362120650,0.014480131678283215,9.750165939331055,0.3733135163784027,-0.039269909262657166,-0.022776545956730843,-0.028047440573573112
1898832364120650,0.01014183834195137,9.767260551452637,0.4099830985069275,-0.04040437191724777,-0.02174680307507515,-0.017994344234466553
1898832366123775,0.02933375909924507,9.792255401611328,0.4550994336605072,-0.04007275775074959,-0.022427480667829514,-0.020978856831789017
1898832368120650,0.03844130411744118,9.806774139404297,0.47392743825912476,-0.03991568088531494,-0.02007128670811653,-0.022794000804424286
1898832370120650,0.04993347078561783,9.805865287780762,0.4861091375350952,-0.04162610322237015,-0.014381512999534607,-0.013229595497250557
1898832372120650,0.05353435128927231,9.81851577758789,0.5410512685775757,-0.04459316283464432,-0.010576695203781128,-0.015847589820623398
1898832374120650,0.05975927412509918,9.831942558288574,0.5696763396263123,-0.04611159861087799,-0.005951572675257921,-0.02586578018963337
1898832376128462,0.06725791096687317,9.845139503479004,0.5991920828819275,-0.04747295379638672,0.001483529806137085,-0.02378883771598339
1898832380123775,0.08747455477714539,9.87979793548584,0.619925856590271,-0.04761258140206337,0.015934856608510017,-0.022933626547455788
1898832378120650,0.07195054739713669,9.869770050048828,0.626514732837677,-0.04698426276445389,0.008290314115583897,-0.023020893335342407
1898832382120650,0.09655337035655975,9.882316589355469,0.619475781917572,-0.04914847016334534,0.024329889565706253,-0.0159872155636549
1898832384120650,0.10279744863510132,9.890170097351074,0.6081081032752991,-0.04872959107160568,0.030403634533286095,-0.017558012157678604
1898832386120650,0.11925996840000153,9.911822319030762,0.5971904993057251,-0.04731587693095207,0.033510319888591766,-0.01984439417719841
1898832388122212,0.12745772302150726,9.919167518615723,0.5764950513839722,-0.04628613218665123,0.03537782281637192,-0.01891936920583248
1898832390120650,0.14628572762012482,9.925230026245117,0.5692070722579956,-0.04757767543196678,0.03693116828799248,-0.019634954631328583
1898832392122212,0.16106274724006653,9.956957817077637,0.5430337190628052,-0.04672246426343918,0.03862413763999939,-0.02241002768278122
1898832394120650,0.1607850044965744,9.963632583618164,0.5431486368179321,-0.04749041050672531,0.04038691893219948,-0.025621432811021805
1898832396120650,0.17184622585773468,9.966917991638184,0.5275862812995911,-0.04818854108452797,0.03920009359717369,-0.02724459022283554
1898832398120650,0.17628028988838196,9.984702110290527,0.5149927735328674,-0.04792674258351326,0.03827507048845291,-0.027488935738801956
1898832400133150,0.18534952402114868,9.998579025268555,0.5177509188652039,-0.047507863491773605,0.03511602431535721,-0.032096605747938156
1898832402120650,0.19071252644062042,9.995553016662598,0.5171188116073608,-0.043703045696020126,0.03291691094636917,-0.036250486969947815
1898832404120650,0.1903965026140213,9.989806175231934,0.5238226056098938,-0.03906046971678734,0.03298672288656235,-0.03595378249883652
1898832406120650,0.18840453028678894,9.998798370361328,0.5296549201011658,-0.03848451003432274,0.029426250606775284,-0.0403171069920063
1898832408120650,0.18948669731616974,10.003971099853516,0.5279885530471802,-0.03879866749048233,0.025220006704330444,-0.043423790484666824
1898832410120650,0.1622215211391449,9.997947692871094,0.5490383505821228,-0.03747221827507019,0.021275563165545464,-0.041119955480098724
1898832412126900,0.13841359317302704,9.9844331741333,0.5915593504905701,-0.03228859230875969,0.019861847162246704,-0.045640360563993454
1898832414120650,0.13086706399917603,9.988580703735352,0.6240630745887756,-0.026057764887809753,0.02033308520913124,-0.053930673748254776
1898832416128462,0.11644439399242401,9.96384334564209,0.6611061692237854,-0.025272367522120476,0.022078415378928185,-0.0515570268034935
1898832418120650,0.11405019462108612,9.944489479064941,0.663979172706604,-0.023980824276804924,0.025673793628811836,-0.050963614135980606
1898832420120650,0.09232999384403229,9.918229103088379,0.6805949211120605,-0.018832102417945862,0.03199188411235809,-0.05784020945429802
1898832422120650,0.10010635852813721,9.894038200378418,0.7075918912887573,-0.018291050568223,0.03640756756067276,-0.055658549070358276
1898832424120650,0.08031110465526581,9.868295669555664,0.7354030013084412,-0.018325956538319588,0.04105014353990555,-0.05424483120441437
1898832428126900,0.06085103377699852,9.82490348815918,0.7700998187065125,-0.01202531810849905,0.0547160729765892,-0.04429645463824272
1898832430120650,0.05308423936367035,9.794698715209961,0.774198591709137,-0.00823795422911644,0.06117378920316696,-0.04576253145933151
1898832426120650,0.06710468232631683,9.853998184204102,0.7531487941741943,-0.014154620468616486,0.04792674258351326,-0.05141739919781685
1898832432123775,0.049703627824783325,9.771512985229492,0.7870219945907593,-0.004502949304878712,0.0659559890627861,-0.04890412464737892
1898832434120650,0.02478477731347084,9.7429838180542,0.8018468618392944,0.002460914198309183,0.07679449021816254,-0.04960225895047188
1898832436120650,0.0012354080099612474,9.729403495788574,0.813798725605011,0.007819075137376785,0.08918632566928864,-0.04605923965573311
1898832438120650,-0.012852074578404427,9.714348793029785,0.7930936813354492,0.00815068744122982,0.09702285379171371,-0.04066617041826248
1898832440120650,-0.03143107891082764,9.702713012695312,0.7645547986030579,0.014311700128018856,0.10279989242553711,-0.043912485241889954
1898832442120650,-0.031105468049645424,9.692418098449707,0.7378450632095337,0.02316051907837391,0.10993828624486923,-0.041661009192466736
1898832444120650,-0.03961925208568573,9.677181243896484,0.7182892560958862,0.03185226023197174,0.1186649352312088,-0.02733185514807701
1898832446120650,-0.06803363561630249,9.664261817932129,0.6720811724662781,0.0362853966653347,0.12222540378570557,-0.027227135375142097
1898832448123775,-0.09042420983314514,9.657903671264648,0.6304411888122559,0.03614576905965805,0.1261349469423294,-0.03525565192103386
1898832450120650,-0.09928275644779205,9.654982566833496,0.5666308999061584,0.04026474431157112,0.1293114423751831,-0.03125884756445885
1898832452120650,-0.10185891389846802,9.649121284484863,0.5297027826309204,0.04984660446643829,0.1264491081237793,-0.027139870449900627
1898832454120650,-0.10872548818588257,9.641096115112305,0.48477795720100403,0.06133086979389191,0.1252797394990921,-0.028326693922281265
1898832456147212,-0.11899182200431824,9.641938209533691,0.4267329275608063,0.06897541135549545,0.1258905977010727,-0.0253421813249588
1898832458120650,-0.12835794687271118,9.635148048400879,0.3816740810871124,0.0725707933306694,0.12440706789493561,-0.019914206117391586
1898832460120650,-0.14829686284065247,9.629115104675293,0.3429358899593353,0.07829546928405762,0.12095131725072861,-0.01745329238474369
1898832462120650,-0.15763424336910248,9.607203483581543,0.30706116557121277,0.08302531391382217,0.1209862232208252,-0.01740093342959881
1898832464122212,-0.1631408929824829,9.590625762939453,0.28106969594955444,0.08751080930233002,0.12189379334449768,-0.011082841083407402
1898832466120650,-0.17603127658367157,9.569336891174316,0.2530958652496338,0.0916123315691948,0.116378553211689,-0.006963863503187895
1898832468131587,-0.17810945212841034,9.572793960571289,0.20729956030845642,0.09309586137533188,0.11056660860776901,-0.009354964829981327
1898832470120650,-0.1713099181652069,9.56063175201416,0.1821412742137909,0.09744173288345337,0.10789625346660614,-0.0027925267349928617
1898832472120650,-0.1751023381948471,9.535272598266602,0.15861107409000397,0.10505136847496033,0.10445795208215714,0.007731808349490166
1898832476122212,-0.1445523202419281,9.509739875793457,0.11205822229385376,0.1128878965973854,0.09606292098760605,0.010995574295520782
1898832474120650,-0.16006673872470856,9.515141487121582,0.12965081632137299,0.11222466826438904,0.0990997925400734,0.007714355364441872
1898832478120650,-0.14218685030937195,9.506647109985352,0.08137413114309311,0.1120326817035675,0.09452702850103378,0.015969762578606606
1898832480120650,-0.1154005229473114,9.49858283996582,0.05546886473894119,0.11307988315820694,0.09283406287431717,0.014905111864209175
1898832482120650,-0.09965624660253525,9.487733840942383,0.0249954666942358,0.116919606924057,0.09318313002586365,0.01855284906923771
1898832484120650,-0.08025363832712173,9.497251510620117,-0.006004657596349716,0.12187634408473969,0.0927467942237854,0.021903881803154945
1898832486120650,-0.055057063698768616,9.503908157348633,-0.05252878740429878,0.11660544574260712,0.08953539282083511,0.02511528693139553
1898832488122212,-0.04902367293834686,9.51174259185791,-0.08772354573011398,0.1097288504242897,0.08491026610136032,0.026162484660744667
1898832490120650,-0.023951593786478043,9.50627326965332,-0.11859917640686035,0.10951940715312958,0.08403760194778442,0.027890361845493317
1898832492120650,-0.00868616346269846,9.522218704223633,-0.12687353789806366,0.10971139371395111,0.08300785720348358,0.03356268256902695
1898832494120650,0.002566584153100848,9.530492782592773,-0.13562673330307007,0.10440559685230255,0.07768460363149643,0.03794345632195473
1898832496144087,0.026862943544983864,9.53186321258545,-0.13566504418849945,0.09901253134012222,0.0728674978017807,0.034487705677747726
1898832498123775,0.03134488686919212,9.544543266296387,-0.13905523717403412,0.09147270768880844,0.07042403519153595,0.033021628856658936
1898832500120650,0.04157291725277901,9.552873611450195,-0.12424948811531067,0.08703956753015518,0.0679805725812912,0.037978366017341614
1898832502120650,0.07130890339612961,9.563532829284668,-0.10135135054588318,0.08656833320856094,0.06822492182254791,0.03391174599528313
1898832504120650,0.09419747442007065,9.582801818847656,-0.09050082415342331,0.07974409312009811,0.07194247096776962,0.03183480724692345
1898832506120650,0.10665690153837204,9.584161758422852,-0.07369352877140045,0.07206464558839798,0.07414158433675766,0.037664204835891724
1898832508120650,0.13870090246200562,9.605795860290527,-0.04032793268561363,0.06544984877109528,0.07557275891304016,0.0325503908097744
1898832510120650,0.15717455744743347,9.61747932434082,-0.020274098962545395,0.06059783324599266,0.0774926170706749,0.028152160346508026
1898832512120650,0.1778125762939453,9.630752563476562,-0.006761225871741772,0.05661848187446594,0.07876671105623245,0.029199358075857162
1898832514120650,0.2049436718225479,9.639477729797363,-0.008427590131759644,0.05309291556477547,0.0812101662158966,0.020437804982066154
1898832516120650,0.22379082441329956,9.645635604858398,0.0101322615519166,0.049497537314891815,0.08515461534261703,0.01507964450865984
1898832518120650,0.23568521440029144,9.649121284484863,0.017104176804423332,0.04557054489850998,0.08836601674556732,0.015044738538563251
1898832520120650,0.2520136833190918,9.648019790649414,0.03583640977740288,0.03937462717294693,0.08759807795286179,0.010838494636118412
1898832522120650,0.2615330219268799,9.648660659790039,0.04638047516345978,0.03621558099985123,0.09171704947948456,0.007801621686667204
1898832526120650,0.24908316135406494,9.657214164733887,0.09044336527585983,0.032759830355644226,0.10389944911003113,0.0026179938577115536
1898832524120650,0.2520136833190918,9.652549743652344,0.06049668788909912,0.036704275757074356,0.09859365224838257,0.007138396613299847
1898832528120650,0.24889163672924042,9.658247947692871,0.08946652710437775,0.02954842336475849,0.1057145893573761,-0.004468042869120836
1898832530120650,0.2320268750190735,9.655518531799316,0.10530656576156616,0.02972295694053173,0.10273008048534393,-0.007487462367862463
1898832532120650,0.23382732272148132,9.656705856323242,0.11792880296707153,0.02949606440961361,0.10391690582036972,-0.008726646192371845
1898832534120650,0.22824403643608093,9.65645694732666,0.12898044288158417,0.027296949177980423,0.10691887140274048,-0.010559242218732834
1898832536142525,0.2155260294675827,9.663294792175293,0.13647907972335815,0.02347467839717865,0.10723303258419037,-0.018081611022353172
1898832538120650,0.20784544944763184,9.660795211791992,0.14266569912433624,0.021816615015268326,0.10890854150056839,-0.021903881803154945
1898832540120650,0.19830694794654846,9.658869743347168,0.14474384486675262,0.020385446026921272,0.11274827271699905,-0.02626720443367958
1898832542120650,0.19818243384361267,9.651534080505371,0.15148593485355377,0.022340213879942894,0.11440633237361908,-0.04136430472135544
1898832544120650,0.18498559296131134,9.647531509399414,0.1642422378063202,0.021851522848010063,0.11496483534574509,-0.04066617041826248
1898832546128462,0.16929879784584045,9.640809059143066,0.15739482641220093,0.020402899011969566,0.1143365204334259,-0.031031953170895576
1898832548120650,0.14258907735347748,9.633233070373535,0.16671305894851685,0.02445206232368946,0.11342895030975342,-0.03689625859260559
1898832550120650,0.1348605901002884,9.629804611206055,0.16544891893863678,0.025010569021105766,0.11534880846738815,-0.038693949580192566
1898832552120650,0.12019850313663483,9.628292083740234,0.1627674102783203,0.02981022372841835,0.11634364724159241,-0.03391174599528313
1898832554120650,0.11781387776136398,9.628070831298828,0.14754986763000488,0.03104940801858902,0.11503464728593826,-0.04016002640128136
1898832556120650,0.10367850959300995,9.62964153289795,0.13449667394161224,0.029269171878695488,0.11498229205608368,-0.045151665806770325
1898832558120650,0.09455180913209915,9.606274604797363,0.11314039677381516,0.030176742002367973,0.1143539696931839,-0.04588470607995987
1898832560120650,0.09962751716375351,9.596113204956055,0.10302729159593582,0.030927233397960663,0.11342895030975342,-0.04806636646389961
1898832562120650,0.08842266350984573,9.602099418640137,0.10027875006198883,0.029513517394661903,0.11295770853757858,-0.05037020146846771
1898832564126900,0.08230307698249817,9.60347843170166,0.09219592064619064,0.02909463830292225,0.11601203680038452,-0.05394812673330307
1898832566120650,0.07867346704006195,9.598249435424805,0.06307285279035568,0.030979594215750694,0.11787953972816467,-0.05696754530072212
1898832568120650,0.07706456631422043,9.592024803161621,0.044848185032606125,0.03164282068610191,0.11911872029304504,-0.060301125049591064
1898832570120650,0.06770802289247513,9.587053298950195,0.026700137183070183,0.03406882658600807,0.1212480217218399,-0.06379178166389465
1898832572128462,0.06425079703330994,9.568350791931152,-0.008820239454507828,0.03141592815518379,0.12233012914657593,-0.06379178166389465
1898832574120650,0.05694369599223137,9.567938804626465,-0.04372769966721535,0.02736676298081875,0.12498302757740021,-0.061679936945438385
1898832576145650,0.05326620116829872,9.571587562561035,-0.06758352369070053,0.025010569021105766,0.12573352456092834,-0.06599090248346329
1898832578125337,0.03439031168818474,9.563389778137207,-0.08896853774785995,0.021711895242333412,0.1264141947031021,-0.07508406043052673
1898832580120650,0.02786850742995739,9.558984756469727,-0.12145306169986725,0.018832102417945862,0.12466886639595032,-0.0818210318684578
1898832582120650,0.03447650372982025,9.561502456665039,-0.14241668581962585,0.01377064734697342,0.12048007547855377,-0.0852418839931488
1898832584120650,0.02632664144039154,9.572286605834961,-0.14573027193546295,0.008482299745082855,0.11805406957864761,-0.08011060953140259
1898832586120650,0.03376782312989235,9.573205947875977,-0.14518438279628754,0.007592182140797377,0.11622147262096405,-0.07239625602960587
1898832592120650,0.01668279804289341,9.567545890808105,-0.16044981777668,-3.665191470645368E-4,0.11095058172941208,-0.07494443655014038
1898832594120650,0.004596867132931948,9.570094108581543,-0.15889838337898254,-0.00769690191373229,0.10779153555631638,-0.07635815441608429
1898832590120650,0.009346963837742805,9.55778694152832,-0.15402378141880035,0.006928957067430019,0.11358603090047836,-0.0780511274933815
1898832588120650,0.021030668169260025,9.567238807678223,-0.15301822125911713,0.00954695139080286,0.11468558758497238,-0.07534586638212204
1898832596120650,-0.008264783769845963,9.554483413696289,-0.15715539455413818,-0.01202531810849905,0.10679669678211212,-0.07766715437173843
1898832598120650,-0.009433154948055744,9.543335914611816,-0.15685851871967316,-0.01392772700637579,0.10688396543264389,-0.07655014097690582
1898832600120650,-0.016031574457883835,9.53494644165039,-0.15875473618507385,-0.019390607252717018,0.10632545500993729,-0.07627088576555252
1898832602120650,-0.01968991383910179,9.526653289794922,-0.15008772909641266,-0.025185100734233856,0.1048419252038002,-0.08032005280256271
1898832604120650,-0.016194378957152367,9.51648235321045,-0.15025052428245544,-0.029618237167596817,0.10199704021215439,-0.08478809148073196
1898832606120650,-0.027150247246026993,9.514595985412598,-0.14362336695194244,-0.030682887881994247,0.09813986718654633,-0.08257152885198593
1898832608120650,-0.030511707067489624,9.50529670715332,-0.12995727360248566,-0.030927233397960663,0.09527752548456192,-0.0832347497344017
1898832610120650,-0.023233333602547646,9.510419845581055,-0.09863153100013733,-0.03375466912984848,0.08993681520223618,-0.08895943313837051
1898832612126900,-0.0286729596555233,9.493478775024414,-0.07507258653640747,-0.039392080157995224,0.08421213924884796,-0.08588765561580658
1898832614120650,-0.04474284127354622,9.481497764587402,-0.048468220978975296,-0.04314453899860382,0.08159413933753967,-0.07564257085323334
1898832616126900,-0.03841257095336914,9.464489936828613,-0.004453215282410383,-0.04207988828420639,0.07936011999845505,-0.07611380517482758
1898832618136275,-0.042147524654865265,9.444550514221191,0.037952885031700134,-0.039130281656980515,0.07852236181497574,-0.07904595881700516
1898832620122212,-0.043995849788188934,9.438067436218262,0.09225337952375412,-0.037629298865795135,0.07808603346347809,-0.0751538798213005
1898832622120650,-0.06288131326436996,9.426431655883789,0.12443144619464874,-0.037768926471471786,0.07667231559753418,-0.07614871859550476
1898832624120650,-0.05905058979988098,9.418999671936035,0.1506144404411316,-0.03693116828799248,0.07566002011299133,-0.07817329466342926
1898832626126900,-0.06508397310972214,9.415178298950195,0.1834341585636139,-0.032620202749967575,0.07693411409854889,-0.07829546928405762
1898832628120650,-0.07677725702524185,9.406310081481934,0.20270270109176636,-0.02741912193596363,0.07998844236135483,-0.07895869761705399
1898832630120650,-0.07366479188203812,9.405583381652832,0.2175275832414627,-0.02626720443367958,0.08004079759120941,-0.08108799904584885
1898832632120650,-0.08522401005029678,9.400717735290527,0.2301977127790451,-0.025987952947616577,0.08066911995410919,-0.08248426020145416
1898832634120650,-0.10651324689388275,9.399750709533691,0.2571659982204437,-0.023143066093325615,0.08517206460237503,-0.08049458265304565
1898832636120650,-0.11500786989927292,9.401330947875977,0.2756683826446533,-0.018395770341157913,0.09136798232793808,-0.0797789990901947
1898832638120650,-0.12364615499973297,9.391514778137207,0.3097522258758545,-0.016283921897411346,0.09873327612876892,-0.0818210318684578
1898832640120650,-0.13415192067623138,9.39297103881836,0.32464417815208435,-0.016999507322907448,0.10636036098003387,-0.08134979754686356
1898832642120650,-0.14627614617347717,9.396561622619629,0.32089963555336,-0.014067353680729866,0.11534880846738815,-0.08201301842927933
1898832644120650,-0.1457590013742447,9.389015197753906,0.327450156211853,-0.011379546485841274,0.1247212290763855,-0.08475318551063538
1898832646122212,-0.16873376071453094,9.401177406311035,0.3114473223686218,-0.011501720175147057,0.13489650189876556,-0.08223991096019745
1898832648120650,-0.18690095841884613,9.409672737121582,0.2916041910648346,-0.011571533046662807,0.1460666060447693,-0.08217009902000427
1898832650120650,-0.20578642189502716,9.42817497253418,0.24934174120426178,-0.010105456225574017,0.15596261620521545,-0.08752825856208801
1898832652123775,-0.20987571775913239,9.434131622314453,0.20908084511756897,-0.010855947621166706,0.16399113833904266,-0.0878598764538765
1898832656142525,-0.2502802610397339,9.418981552124023,0.10313262790441513,-0.018971728160977364,0.17680184543132782,-0.08386307209730148
1898832654120650,-0.21760420501232147,9.433183670043945,0.15135185420513153,-0.016632987186312675,0.1722814440727234,-0.08203047513961792
1898832658120650,-0.26917532086372375,9.410956382751465,0.06258442997932434,-0.01926843449473381,0.1794023960828781,-0.08478809148073196
1898832660120650,-0.28863537311553955,9.403610229492188,0.023951593786478043,-0.020926497876644135,0.18282324075698853,-0.0777718722820282
1898832662120650,-0.315651535987854,9.404376029968262,-0.017056293785572052,-0.026249751448631287,0.18786723911762238,-0.08138470351696014
1898832664122212,-0.33979466557502747,9.397778511047363,-0.05841852352023125,-0.029862582683563232,0.19523252546787262,-0.090425506234169
1898832666126900,-0.3829956650733948,9.393277168273926,-0.11584105342626572,-0.029618237167596817,0.2010793834924698,-0.09651670604944229
1898832668120650,-0.39884528517723083,9.384648323059082,-0.1655542552471161,-0.032183870673179626,0.20615829527378082,-0.09873327612876892
1898832670120650,-0.4191480875015259,9.37680435180664,-0.21583248674869537,-0.03977605327963829,0.2108357697725296,-0.08847074210643768
1898832672120650,-0.41870757937431335,9.378663063049316,-0.2815006673336029,-0.047542769461870193,0.21293017268180847,-0.0754505842924118
1898832674120650,-0.43235450983047485,9.374794006347656,-0.35021424293518066,-0.05391322076320648,0.21190042793750763,-0.07511897385120392
1898832676120650,-0.4414046108722687,9.372610092163086,-0.3993624150753021,-0.05953317880630493,0.20867156982421875,-0.07644542306661606
1898832678120650,-0.4357638657093048,9.384437561035156,-0.46244484186172485,-0.0648040771484375,0.2025279998779297,-0.07262314856052399
1898832680120650,-0.43053489923477173,9.389455795288086,-0.51070237159729,-0.06958627700805664,0.19521507620811462,-0.07037167251110077
1898832682120650,-0.4170507788658142,9.386918067932129,-0.5390976071357727,-0.07712610065937042,0.1860869973897934,-0.06803293526172638
1898832684120650,-0.40172791481018066,9.403868675231934,-0.5691975355148315,-0.08634144067764282,0.17575465142726898,-0.06534512341022491
1898832688120650,-0.38174107670783997,9.423491477966309,-0.6247621178627014,-0.09887290000915527,0.15186110138893127,-0.06101670861244202
1898832686120650,-0.38213375210762024,9.414824485778809,-0.6036261320114136,-0.09405579417943954,0.1644798219203949,-0.06246533244848251
1898832690120650,-0.3661404848098755,9.432857513427734,-0.6166697144508362,-0.09953612834215164,0.1379333734512329,-0.06085963174700737
1898832692120650,-0.35058772563934326,9.439427375793457,-0.5963573455810547,-0.10676179081201553,0.12334241718053818,-0.05539675056934357
1898832694120650,-0.340110719203949,9.428509712219238,-0.5790328979492188,-0.11583749949932098,0.10871656239032745,-0.045727625489234924
1898832696126900,-0.3366535007953644,9.429141998291016,-0.5411182641983032,-0.12465141713619232,0.09108873456716537,-0.044977135956287384
1898832698123775,-0.32541990280151367,9.440155029296875,-0.5021407008171082,-0.13093459606170654,0.07700392603874207,-0.04490732029080391
1898832700123775,-0.3031538128852844,9.441457748413086,-0.4581257104873657,-0.13414600491523743,0.06862634420394897,-0.03677408769726753
1898832702120650,-0.2838565707206726,9.443181991577148,-0.39294594526290894,-0.13697344064712524,0.058974675834178925,-0.0374373123049736
1898832704126900,-0.2740786373615265,9.451944351196289,-0.34192073345184326,-0.14021974802017212,0.04536110535264015,-0.04195771366357803
1898832706128462,-0.25133371353149414,9.461013793945312,-0.24486936628818512,-0.1445656269788742,0.03183480724692345,-0.03768165782094002
1898832708120650,-0.23670993745326996,9.469162940979004,-0.16473065316677094,-0.14587461948394775,0.026145031675696373,-0.035499997437000275
1898832710120650,-0.20481917262077332,9.464949607849121,-0.09465716034173965,-0.1477595716714859,0.021153390407562256,-0.032882001250982285
1898832712120650,-0.18511009216308594,9.473310470581055,-0.016146495938301086,-0.15049974620342255,0.017994344234466553,-0.02586578018963337
1898832714120650,-0.16701951622962952,9.474928855895996,0.08848011493682861,-0.15339699387550354,0.016091935336589813,-0.024085544049739838
1898832716120650,-0.14539508521556854,9.46737289428711,0.16747920215129852,-0.15428709983825684,0.015132004395127296,-0.024068091064691544
1898832718120650,-0.11987289786338806,9.458284378051758,0.26827508211135864,-0.15442673861980438,0.01762782596051693,-0.021362829953432083
1898832720120650,-0.10738473385572433,9.46622371673584,0.3363470435142517,-0.15510740876197815,0.020402899011969566,-0.017296213656663895
1898832722120650,-0.09152553975582123,9.464374542236328,0.4016321003437042,-0.15275122225284576,0.022113321349024773,-0.01851794309914112
1898832724128462,-0.07958326488733292,9.464548110961914,0.48874276876449585,-0.14854496717453003,0.022689281031489372,-0.02183406800031662
1898832726120650,-0.07460332661867142,9.456502914428711,0.581838846206665,-0.1446179747581482,0.026284659281373024,-0.016632987186312675
1898832728120650,-0.07042783498764038,9.455076217651367,0.6476315259933472,-0.13901548087596893,0.029600784182548523,-0.013386675156652927
1898832730120650,-0.04902367293834686,9.445547103881836,0.7252898812294006,-0.1310742199420929,0.03488913178443909,-0.015917403623461723
1898832732120650,-0.044177811592817307,9.454865455627441,0.7741891145706177,-0.12281882017850876,0.04207988828420639,-0.013316862285137177
1898832736145650,-0.020963631570339203,9.453064918518066,0.8975287675857544,-0.10791371017694473,0.058276545256376266,-0.007853982038795948
1898832734120650,-0.032781410962343216,9.452394485473633,0.8412937521934509,-0.11533135920763016,0.04845033958554268,-0.00930260494351387
1898832740120650,-0.015313314273953438,9.474621772766113,0.9663764238357544,-0.09320057928562164,0.0855385884642601,-0.007487462367862463
1898832738123775,-0.011769895441830158,9.462814331054688,0.9371001124382019,-0.10114183276891708,0.07197737693786621,-0.008011061698198318
1898832742120650,-0.005717353895306587,9.492291450500488,0.9899641275405884,-0.08405505865812302,0.09815731644630432,-0.007225662935525179
1898832744120650,-0.005870582535862923,9.486420631408691,0.9848979711532593,-0.07609635591506958,0.11236429959535599,-0.008290314115583897
1898832746120650,-8.906430448405445E-4,9.493517875671387,0.9820153117179871,-0.06665412336587906,0.12679816782474518,-0.009738937020301819
1898832748120650,-0.010706869885325432,9.50186824798584,0.9449148178100586,-0.05735151842236519,0.14194762706756592,-0.008970992639660835
1898832750120650,-0.02213199995458126,9.50520133972168,0.914479672908783,-0.04991641640663147,0.15803956985473633,-0.009477137587964535
1898832752120650,-0.023472754284739494,9.515534400939941,0.8818514943122864,-0.041032690554857254,0.1731366664171219,-0.01424188632518053
1898832754120650,-0.02682463638484478,9.511186599731445,0.7951143980026245,-0.03200933709740639,0.18622663617134094,-0.014852751977741718
1898832756122212,-0.023252487182617188,9.51026725769043,0.7334206104278564,-0.02560397982597351,0.1949881762266159,-0.013980086892843246
1898832758120650,-0.042358215898275375,9.500192642211914,0.6757299304008484,-0.019949113950133324,0.20155061781406403,-0.013823007233440876
1898832760126900,-0.054827217012643814,9.489178657531738,0.5994985103607178,-0.010489428415894508,0.2097013145685196,-0.014957471750676632
1898832762120650,-0.06392518430948257,9.479668617248535,0.5388294458389282,-0.00205948855727911,0.2177298218011856,-0.015219271183013916
1898832764120650,-0.0873117446899414,9.45960521697998,0.45654553174972534,0.004310963209718466,0.22362904250621796,-0.013857914134860039
1898832766120650,-0.1065228208899498,9.44163990020752,0.3926299214363098,0.011763518676161766,0.2278352826833725,-0.01647590845823288
1898832768120650,-0.1267969161272049,9.417238235473633,0.3181127905845642,0.019146261736750603,0.23146556317806244,-0.018099064007401466
1898832770120650,-0.15558481216430664,9.39523983001709,0.22516031563282013,0.027715828269720078,0.23451988399028778,-0.016528267413377762
1898832772126900,-0.1786840707063675,9.373136520385742,0.14343184232711792,0.035063665360212326,0.23427554965019226,-0.016022123396396637
1898832774120650,-0.20348799228668213,9.350592613220215,0.07920976728200912,0.04211479425430298,0.23235568404197693,-0.016667895019054413
1898832776130025,-0.24262839555740356,9.311529159545898,-0.027542896568775177,0.047193702310323715,0.23108159005641937,-0.016702800989151
1898832778122212,-0.273647665977478,9.28888988494873,-0.1058141440153122,0.05309291556477547,0.22893483936786652,-0.01581268385052681
1898832780120650,-0.3019183874130249,9.254863739013672,-0.1833096593618393,0.06028367206454277,0.22633430361747742,-0.013561207801103592
1898832782120650,-0.35687971115112305,9.220693588256836,-0.28734248876571655,0.06274458765983582,0.21902136504650116,-0.008220500312745571
1898832784122212,-0.3879851698875427,9.190191268920898,-0.3626641035079956,0.06729989498853683,0.20931734144687653,0.0010646508308127522
1898832786120650,-0.44144290685653687,9.160100936889648,-0.4382633864879608,0.07412413507699966,0.20345303416252136,0.004310963209718466
1898832788120650,-0.48732537031173706,9.138208389282227,-0.5086816549301147,0.07908086478710175,0.19868828356266022,0.006265731994062662
1898832792120650,-0.546653687953949,9.089921951293945,-0.6277309656143188,0.07869689911603928,0.1783028393983841,0.013945180922746658
1898832794120650,-0.592545747756958,9.054325103759766,-0.7052169442176819,0.07991862297058105,0.16608552634716034,0.023753931745886803
1898832790120650,-0.5277203321456909,9.120213508605957,-0.5674641132354736,0.0792204961180687,0.18935076892375946,0.011152653954923153
1898832796120650,-0.6189298629760742,9.044221878051758,-0.7709329128265381,0.0832347497344017,0.15386822819709778,0.038641590625047684
1898832798120650,-0.6509163975715637,9.037479400634766,-0.8403360843658447,0.08703956753015518,0.14585717022418976,0.04862487316131592
1898832804120650,-0.6893385648727417,9.045427322387695,-0.995221734046936,0.08922123163938522,0.10906562209129333,0.05686282739043236
1898832802120650,-0.6819739937782288,9.038408279418945,-0.9425684809684753,0.08752825856208801,0.12224286049604416,0.05541420355439186
1898832800120650,-0.6677237153053284,9.037287712097168,-0.8865728974342346,0.08716174215078354,0.13576915860176086,0.05372123420238495
1898832806120650,-0.6954964399337769,9.049880981445312,-1.038844108581543,0.08918632566928864,0.09456194192171097,0.06421066075563431
1898832808120650,-0.6951804161071777,9.042076110839844,-1.0771225690841675,0.08826129883527756,0.08087855577468872,0.07183775305747986
1898832810120650,-0.6969425678253174,9.042123794555664,-1.1207544803619385,0.0889943391084671,0.06820746511220932,0.07841764390468597
1898832812126900,-0.6780378818511963,9.052678108215332,-1.1538615226745605,0.08965755999088287,0.05515240505337715,0.08477064222097397
1898832814120650,-0.660847544670105,9.077040672302246,-1.1557577848434448,0.08850564807653427,0.0455181859433651,0.09040805697441101
1898832816147212,-0.6504088044166565,9.101653099060059,-1.1587265729904175,0.08492772281169891,0.03640756756067276,0.09567894786596298
1898832818123775,-0.6299623250961304,9.128363609313965,-1.1653729677200317,0.08518952131271362,0.0293738916516304,0.09595820307731628
1898832820120650,-0.5945377349853516,9.164505958557129,-1.166560411453247,0.08473573625087738,0.024294983595609665,0.09491100162267685
1898832822120650,-0.56903475522995,9.196282386779785,-1.1700177192687988,0.08000589162111282,0.020804325118660927,0.09976302087306976
1898832824120650,-0.5447383522987366,9.225357055664062,-1.1813757419586182,0.07639306038618088,0.0184306763112545,0.09955357760190964
1898832826120650,-0.5198003649711609,9.25891399383545,-1.2149903774261475,0.07096508890390396,0.01780235767364502,0.09314822405576706
1898832828120650,-0.4869997799396515,9.303216934204102,-1.2529910802841187,0.06370452046394348,0.018989183008670807,0.10005972534418106
1898832830120650,-0.4642452895641327,9.329322814941406,-1.272719383239746,0.05909684672951698,0.016004668548703194,0.10269517451524734
1898832832120650,-0.4485105872154236,9.363138198852539,-1.3010571002960205,0.052551861852407455,0.011187560856342316,0.09264207631349564
1898832834120650,-0.43492111563682556,9.406339645385742,-1.349735975265503,0.045029494911432266,0.012618730776011944,0.0956265926361084
1898832836120650,-0.4334654211997986,9.431057929992676,-1.3790218830108643,0.0408930629491806,0.018448129296302795,0.10372491925954819
1898832838123775,-0.4286961555480957,9.4705810546875,-1.4205851554870605,0.03520328924059868,0.02082177810370922,0.09916960448026657
1898832840120650,-0.414091557264328,9.500929832458496,-1.4684022665023804,0.028099801391363144,0.022933626547455788,0.09145525097846985
1898832842120650,-0.3998987078666687,9.518311500549316,-1.5141793489456177,0.018483037129044533,0.02281145378947258,0.0884183794260025
1898832844120650,-0.38761165738105774,9.556187629699707,-1.5775777101516724,0.005201081279665232,0.023335052654147148,0.08597491681575775
1898832846120650,-0.3741849958896637,9.588183403015137,-1.6191794872283936,-0.00874409917742014,0.024504423141479492,0.08203047513961792
1898832848130025,-0.3633631765842438,9.610679626464844,-1.6421924829483032,-0.021554816514253616,0.023003440350294113,0.07702138274908066
1898832850120650,-0.34713053703308105,9.653958320617676,-1.7047003507614136,-0.03495894372463226,0.021938787773251534,0.07358308136463165
1898832852120650,-0.33039984107017517,9.687274932861328,-1.7453155517578125,-0.05258677154779434,0.019303342327475548,0.0694291964173317
1898832854120650,-0.31629320979118347,9.724902153015137,-1.7697267532348633,-0.0711570754647255,0.01616174913942814,0.0625176951289177
1898832856130025,-0.287275493144989,9.752273559570312,-1.814871907234192,-0.08960520476102829,0.012164944782853127,0.0601964071393013
1898832858120650,-0.2764536738395691,9.786088943481445,-1.8273025751113892,-0.10438814014196396,0.008028514683246613,0.05420992523431778
1898832860120650,-0.2688305377960205,9.818707466125488,-1.83714759349823,-0.12032299488782883,0.006230825558304787,0.04248131439089775
1898832862120650,-0.2456163614988327,9.861937522888184,-1.8438035249710083,-0.13922491669654846,0.003508111694827676,0.04398229718208313
1898832864120650,-0.22328324615955353,9.882871627807617,-1.847442626953125,-0.15664330124855042,-0.002949606394395232,0.048956483602523804
1898832866120650,-0.20867861807346344,9.903308868408203,-1.839972734451294,-0.17449802160263062,-0.008953538723289967,0.0383099764585495
1898832868122212,-0.19155527651309967,9.922327995300293,-1.84647536277771,-0.19050268828868866,-0.013805554248392582,0.027785642072558403
1898832870120650,-0.171702578663826,9.942774772644043,-1.8383256196975708,-0.20493656396865845,-0.022863812744617462,0.022427480667829514
1898832872120650,-0.14985787868499756,9.949956893920898,-1.8057165145874023,-0.2194925993680954,-0.034086279571056366,0.012793263420462608
1898832874125337,-0.11497914046049118,9.957341194152832,-1.7638370990753174,-0.2364921122789383,-0.04368559271097183,0.006702064536511898
1898832876136275,-0.08157524466514587,9.975125312805176,-1.737318992614746,-0.2535439729690552,-0.055169858038425446,0.0020943949930369854
1898832878120650,-0.05547844246029854,9.974128723144531,-1.6768989562988281,-0.267314612865448,-0.06822492182254791,-0.007138396613299847
1898832880120650,-0.03768473491072655,9.985219955444336,-1.627061128616333,-0.2794446647167206,-0.07936011999845505,-0.014538592658936977
1898832882120650,-0.005161899141967297,9.99149227142334,-1.5600905418395996,-0.29220300912857056,-0.08953539282083511,-0.021013764664530754
1898832884120650,0.03217807039618492,10.002227783203125,-1.4728457927703857,-0.3041061758995056,-0.09829694032669067,-0.03148574009537697
1898832886120650,0.04760630801320076,10.002448081970215,-1.3925251960754395,-0.31525883078575134,-0.10547024756669998,-0.03893829509615898
1898832888125337,0.06927862018346786,9.992449760437012,-1.316389560699463,-0.32333970069885254,-0.11482521146535873,-0.04452335089445114
1898832890120650,0.08253291994333267,10.00674819946289,-1.1931840181350708,-0.33164745569229126,-0.12466886639595032,-0.05665338784456253
1898832892120650,0.09043378382921219,9.999603271484375,-1.09698486328125,-0.3430793583393097,-0.13089969754219055,-0.06703809648752213
1898832896142525,0.0930003747344017,9.990103721618652,-0.885988712310791,-0.3608817160129547,-0.13295918703079224,-0.08354891091585159
1898832898120650,0.10401370376348495,9.974483489990234,-0.7765928506851196,-0.3669554591178894,-0.13301153481006622,-0.09423032402992249
1898832900120650,0.0920809954404831,9.960989952087402,-0.6750404238700867,-0.37215656042099,-0.12945106625556946,-0.09815731644630432
1898832902120650,0.0737031027674675,9.929826736450195,-0.5508579015731812,-0.37720054388046265,-0.12793263792991638,-0.10705849528312683
1898832904120650,0.057901374995708466,9.910538673400879,-0.4584704637527466,-0.37976619601249695,-0.1229759007692337,-0.11787953972816467
1898832894120650,0.09265560656785965,9.992938041687012,-1.0047985315322876,-0.3524866998195648,-0.1310742199420929,-0.07202973961830139
1898832906126900,0.04358404874801636,9.88077449798584,-0.3186107873916626,-0.3801676034927368,-0.11833332479000092,-0.12519246339797974
1898832908122212,0.02765781804919243,9.861679077148438,-0.22524648904800415,-0.3824714422225952,-0.11479030549526215,-0.1319119781255722
1898832910120650,0.006263231858611107,9.82767105102539,-0.12503479421138763,-0.38814377784729004,-0.10608111321926117,-0.1359436959028244
1898832912120650,-0.026834214106202126,9.803278923034668,-0.03974374756217003,-0.39074429869651794,-0.09325294196605682,-0.14069099724292755
1898832914120650,-0.06787082552909851,9.761754035949707,0.08274361491203308,-0.39296087622642517,-0.0789412409067154,-0.1449146866798401
1898832916120650,-0.10724107921123505,9.721866607666016,0.15208926796913147,-0.3934844732284546,-0.06534512341022491,-0.14824827015399933
1898832918120650,-0.1462378352880478,9.693011283874512,0.21847569942474365,-0.39046505093574524,-0.053930673748254776,-0.15385077893733978
1898832920120650,-0.19671718776226044,9.659167289733887,0.2896409332752228,-0.3865206241607666,-0.03940953314304352,-0.15821409225463867
1898832922120650,-0.24615266919136047,9.630370140075684,0.33904770016670227,-0.38062140345573425,-0.022130774334073067,-0.16252505779266357
1898832924120650,-0.3032687306404114,9.59529972076416,0.4103853106498718,-0.372226357460022,-0.005846852902323008,-0.16770868003368378
1898832926120650,-0.34654632210731506,9.562422752380371,0.4383879005908966,-0.3640407621860504,0.009930923581123352,-0.16556192934513092
1898832928120650,-0.3988931477069855,9.532112121582031,0.45778095722198486,-0.356588214635849,0.02427753061056137,-0.1566781997680664
1898832930120650,-0.47611096501350403,9.50160026550293,0.48537173867225647,-0.34918802976608276,0.03726277872920036,-0.15964525938034058
1898832932120650,-0.5328822731971741,9.473472595214844,0.5027632117271423,-0.33882075548171997,0.05377359315752983,-0.16116370260715485
1898832934120650,-0.5832753777503967,9.45248031616211,0.4894418716430664,-0.3272492289543152,0.0699876993894577,-0.15084880590438843
1898832936128462,-0.6685951948165894,9.399942398071289,0.4836862087249756,-0.3162711262702942,0.08272860944271088,-0.15158183872699738
1898832938120650,-0.7326927781105042,9.36079216003418,0.4615829586982727,-0.3067765235900879,0.09522516280412674,-0.14926055073738098
1898832940120650,-0.7805959582328796,9.332847595214844,0.44273579120635986,-0.2992366850376129,0.10608111321926117,-0.13638003170490265
1898832942120650,-0.8553237915039062,9.290719032287598,0.39003461599349976,-0.2852216958999634,0.11370819807052612,-0.13432054221630096
1898832944120650,-0.9137805700302124,9.260207176208496,0.36758658289909363,-0.2681872844696045,0.11789698898792267,-0.13807299733161926
1898832946120650,-0.9910654425621033,9.206902503967285,0.34358710050582886,-0.25530675053596497,0.12362167239189148,-0.13069024682044983
1898832948120650,-1.0459692478179932,9.176228523254395,0.313860684633255,-0.24275784194469452,0.12744393944740295,-0.1215272769331932
1898832950120650,-1.0968986749649048,9.153109550476074,0.2800354063510895,-0.23095941543579102,0.13147565722465515,-0.1117708832025528
1898832952120650,-1.1460468769073486,9.127070426940918,0.262979120016098,-0.21837559342384338,0.13803808391094208,-0.09691813588142395
1898832954120650,-1.2043217420578003,9.10421085357666,0.2284068465232849,-0.20235347747802734,0.13868385553359985,-0.09025097638368607
1898832956120650,-1.2474939823150635,9.072291374206543,0.20361249148845673,-0.1858251988887787,0.13751448690891266,-0.08564330637454987
1898832958122212,-1.3036906719207764,9.038264274597168,0.16988298296928406,-0.1702045053243637,0.1351233869791031,-0.07162830978631973
1898832960126900,-1.3348441123962402,9.00952434539795,0.13194924592971802,-0.15505504608154297,0.12969541549682617,-0.0581892766058445
1898832962120650,-1.363593578338623,8.990275382995605,0.10583329200744629,-0.1359436959028244,0.1284387856721878,-0.04743804782629013
1898832964120650,-1.386989712715149,8.974865913391113,0.06205770745873451,-0.1178097277879715,0.12569861114025116,-0.03387684002518654
1898832966120650,-1.4055975675582886,8.95703411102295,0.03540545701980591,-0.09929177910089493,0.12100367993116379,-0.020664697512984276
1898832968126900,-1.4143507480621338,8.947715759277344,-0.004510676022619009,-0.08206538110971451,0.11772245913743973,-0.0067544239573180676
1898832970120650,-1.404266357421875,8.925124168395996,-0.05506663769483566,-0.06579891592264175,0.11543607711791992,0.00331612559966743
1898832972120650,-1.40070378780365,8.921533584594727,-0.09960836917161942,-0.04792674258351326,0.11159635335206985,0.016545720398426056
1898832974120650,-1.4045823812484741,8.911304473876953,-0.14229218661785126,-0.033126350492239,0.10452777147293091,0.03556980937719345
1898832976145650,-1.407761812210083,8.903155326843262,-0.206753671169281,-0.015097098425030708,0.0979304239153862,0.0440695621073246
1898832978120650,-1.406124234199524,8.890006065368652,-0.2572043240070343,0.003054326167330146,0.09398598223924637,0.05199335888028145
1898832980120650,-1.4054538011550903,8.886232376098633,-0.3111312985420227,0.018011797219514847,0.0892735943198204,0.06771877408027649
1898832982120650,-1.3949863910675049,8.895225524902344,-0.4076271951198578,0.02923426404595375,0.07967428117990494,0.076619952917099
1898832984122212,-1.3835517168045044,8.895273208618164,-0.47788265347480774,0.03794345632195473,0.07119198143482208,0.08145451545715332
1898832986120650,-1.3622432947158813,8.886165618896484,-0.5701456069946289,0.04597197100520134,0.06326818466186523,0.09381144493818283
1898832988120650,-1.3346046209335327,8.887842178344727,-0.6238427758216858,0.05455899238586426,0.053843408823013306,0.10400416702032089
1898832990120650,-1.30612313747406,8.900071144104004,-0.6838319301605225,0.0619242824614048,0.04574507847428322,0.11248646676540375
1898832992120650,-1.274155855178833,8.916552543640137,-0.7520091533660889,0.06209881603717804,0.038327429443597794,0.12969541549682617
1898832994120650,-1.233349084854126,8.944382667541504,-0.8101882934570312,0.06576400250196457,0.029443703591823578,0.13606587052345276
1898832996120650,-1.2040727138519287,8.964906692504883,-0.8390336036682129,0.07363544404506683,0.022828906774520874,0.13960888981819153
1898832998120650,-1.1421587467193604,8.996940612792969,-0.8817653059959412,0.07883652299642563,0.014067353680729866,0.15191346406936646
1898833000120650,-1.1087260246276855,9.020902633666992,-0.9249663352966309,0.07969173043966293,0.0024085543118417263,0.15577062964439392
1898833002120650,-1.0652472972869873,9.043034553527832,-0.9562633037567139,0.07803367078304291,-0.005916666239500046,0.15564845502376556
1898833004126900,-1.0084569454193115,9.07034683227539,-0.9830400347709656,0.07569492608308792,-0.01286307629197836,0.15858061611652374
1898833006128462,-0.9650260806083679,9.093876838684082,-1.0147392749786377,0.07239625602960587,-0.0205948855727911,0.16547466814517975
1898833008120650,-0.9166057705879211,9.120787620544434,-1.0314221382141113,0.07042403519153595,-0.027227135375142097,0.1713738739490509
1898833010120650,-0.8477581143379211,9.163434028625488,-1.03398859500885,0.0691150352358818,-0.032096605747938156,0.16779595613479614
1898833014120650,-0.7219571471214294,9.215349197387695,-1.0168079137802124,0.056984998285770416,-0.03677408769726753,0.17449802160263062
1898833016126900,-0.6756916046142578,9.235000610351562,-0.9900023937225342,0.05178391933441162,-0.039357174187898636,0.16997762024402618
1898833012120650,-0.7885159850120544,9.181792259216309,-1.0310391187667847,0.06426302343606949,-0.03579670190811157,0.16866861283779144
1898833018122212,-0.6410043835639954,9.256194114685059,-0.9721990823745728,0.04824090003967285,-0.0391826406121254,0.16498596966266632
1898833020120650,-0.587671160697937,9.28496265411377,-0.9581020474433899,0.0452214814722538,-0.03640756756067276,0.16453218460083008
1898833022120650,-0.5335431098937988,9.324601173400879,-0.9472419619560242,0.03949680179357529,-0.03497639670968056,0.15741124749183655
1898833024120650,-0.49582958221435547,9.342453002929688,-0.9393889904022217,0.030892327427864075,-0.03216641768813133,0.14779448509216309
1898833026120650,-0.46040499210357666,9.358963012695312,-0.9321871995925903,0.02439970336854458,-0.033126350492239,0.1410924196243286
1898833028120650,-0.41626545786857605,9.39213752746582,-0.9146808385848999,0.019600046798586845,-0.035412728786468506,0.13557717204093933
1898833030120650,-0.38999632000923157,9.420321464538574,-0.909068763256073,0.012653636746108532,-0.03508111834526062,0.12887510657310486
1898833032120650,-0.3545333743095398,9.445412635803223,-0.9012253880500793,0.002827433403581381,-0.03431317210197449,0.11917108297348022
1898833034120650,-0.3251517415046692,9.467506408691406,-0.88252192735672,-0.006352998316287994,-0.034522611647844315,0.1172163113951683
1898833036120650,-0.3206123411655426,9.4745454788208,-0.8701582551002502,-0.01104793418198824,-0.03761184588074684,0.1120326817035675
1898833038120650,-0.3010469377040863,9.498842239379883,-0.827340304851532,-0.01762782596051693,-0.04040437191724777,0.09681341052055359
1898833040128462,-0.2925906181335449,9.512556076049805,-0.8034844994544983,-0.023369958624243736,-0.04150392860174179,0.09145525097846985
1898833042120650,-0.27878084778785706,9.522017478942871,-0.7657998204231262,-0.026912976056337357,-0.04567526653409004,0.09110618382692337
1898833046126900,-0.2767218351364136,9.551658630371094,-0.6617573499679565,-0.03534291684627533,-0.05324999615550041,0.08047713339328766
1898833050126900,-0.2993135154247284,9.565160751342773,-0.5606071352958679,-0.041172318160533905,-0.04934045672416687,0.06852162629365921
1898833044120650,-0.27471068501472473,9.53773307800293,-0.7142957448959351,-0.031695179641246796,-0.05049237608909607,0.08644615858793259
1898833048123775,-0.29311734437942505,9.568647384643555,-0.6215443015098572,-0.040194932371377945,-0.051661744713783264,0.07473500072956085
1898833052122212,-0.31868740916252136,9.569375038146973,-0.528247058391571,-0.04106759652495384,-0.04876450076699257,0.06265731900930405
1898833054120650,-0.33566707372665405,9.568695068359375,-0.49732357263565063,-0.04401720315217972,-0.047280970960855484,0.057560957968235016
1898833056131587,-0.3495821952819824,9.567374229431152,-0.45333731174468994,-0.04461061581969261,-0.04651302471756935,0.05167919769883156
1898833058120650,-0.3581821620464325,9.573570251464844,-0.42849504947662354,-0.04401720315217972,-0.04672246426343918,0.05017821490764618
1898833060122212,-0.3625204563140869,9.581269264221191,-0.3967287838459015,-0.04310963302850723,-0.04593706503510475,0.051801372319459915
1898833062120650,-0.3671651780605316,9.578444480895996,-0.3613137900829315,-0.043563418090343475,-0.046129051595926285,0.048747044056653976
1898833064123775,-0.37780502438545227,9.584918022155762,-0.35390129685401917,-0.044087015092372894,-0.04773475602269173,0.04269075393676758
1898833066120650,-0.3640623092651367,9.589898109436035,-0.3233991861343384,-0.04284783452749252,-0.050649452954530716,0.03839724510908127
1898833068120650,-0.34741780161857605,9.602530479431152,-0.3256305754184723,-0.040421824902296066,-0.05181882530450821,0.034121185541152954
1898833070120650,-0.34865322709083557,9.615429878234863,-0.324950635433197,-0.03738495334982872,-0.05092870816588402,0.02954842336475849
1898833072120650,-0.3491990864276886,9.627975463867188,-0.3354659676551819,-0.031956978142261505,-0.05138249322772026,0.02900737151503563
1898833074120650,-0.3541790544986725,9.653239250183105,-0.35008975863456726,-0.024085544049739838,-0.052202798426151276,0.026947883889079094
1898833076123775,-0.36194583773612976,9.679384231567383,-0.36281731724739075,-0.021275563165545464,-0.05441936478018761,0.021991148591041565
1898833078125337,-0.355912446975708,9.703689575195312,-0.3644357919692993,-0.02223549410700798,-0.05794493108987808,0.021275563165545464
1898833080126900,-0.3503674566745758,9.729345321655273,-0.3778529167175293,-0.024836035445332527,-0.06363470107316971,0.017907077446579933
1898833082120650,-0.3567073345184326,9.757061958312988,-0.37540125846862793,-0.024347342550754547,-0.06832963973283768,0.011693705804646015
1898833084123775,-0.3617638945579529,9.788406372070312,-0.38601234555244446,-0.02200860157608986,-0.07312929630279541,0.012130037881433964
1898833086126900,-0.3710246682167053,9.822269439697266,-0.4035666584968567,-0.023509584367275238,-0.080058254301548,0.012339477427303791
1898833088126900,-0.3654509484767914,9.861774444580078,-0.4281407296657562,-0.02727949619293213,-0.08658578246831894,0.008866272866725922
1898833090120650,-0.37188655138015747,9.906402587890625,-0.4396520256996155,-0.027087509632110596,-0.09321803599596024,0.008290314115583897
1898833092120650,-0.3709384500980377,9.944001197814941,-0.4346529543399811,-0.025813419371843338,-0.10257299989461899,0.008587019518017769
1898833096128462,-0.35198596119880676,10.038840293884277,-0.4044572710990906,-0.029338983818888664,-0.12739157676696777,0.003281218931078911
1898833094120650,-0.3633536398410797,9.988839149475098,-0.42854294180870056,-0.02874557301402092,-0.11484266072511673,0.007853982038795948
1898833098120650,-0.3606146574020386,10.060359001159668,-0.39737045764923096,-0.0263544712215662,-0.13617058098316193,-0.003228859044611454
1898833100126900,-0.36644694209098816,10.082730293273926,-0.38680723309516907,-0.02183406800031662,-0.14304718375205994,-0.007749261800199747
1898833102120650,-0.36623623967170715,10.123268127441406,-0.3403692841529846,-0.021624628454446793,-0.15104079246520996,-0.013055062852799892
1898833104120650,-0.35813426971435547,10.136762619018555,-0.311859130859375,-0.022113321349024773,-0.15690509974956512,-0.019949113950133324
1898833106120650,-0.37907874584198,10.16466999053955,-0.24854685366153717,-0.020874137058854103,-0.16259486973285675,-0.02586578018963337
1898833108120650,-0.3871615529060364,10.185297966003418,-0.22101354598999023,-0.019338248297572136,-0.1684940904378891,-0.030368728563189507
1898833110120650,-0.39216068387031555,10.201932907104492,-0.1957116276025772,-0.01616174913942814,-0.17149604856967926,-0.03476695716381073
1898833112120650,-0.4090445935726166,10.244789123535156,-0.1568872481584549,-0.01333431527018547,-0.1748296320438385,-0.03940953314304352
1898833114120650,-0.4343656599521637,10.261300086975098,-0.13818374276161194,-0.011903145350515842,-0.1783202886581421,-0.045064400881528854
1898833116122212,-0.455884724855423,10.273788452148438,-0.10408073663711548,-0.009983283467590809,-0.18069393932819366,-0.05003859102725983
1898833118120650,-0.4756416976451874,10.293286323547363,-0.061626750975847244,-0.008098327554762363,-0.18371336162090302,-0.05438445881009102
1898833120120650,-0.49843448400497437,10.313397407531738,-0.028644230216741562,-0.007731808349490166,-0.1852492392063141,-0.058974675834178925
1898833122120650,-0.5166112780570984,10.318079948425293,-9.576806769473478E-5,-0.005462880712002516,-0.1869247555732727,-0.06283185631036758
1898833124130025,-0.5474198460578918,10.334648132324219,0.03280056267976761,-0.004293509759008884,-0.18987436592578888,-0.06448991596698761
1898833128126900,-0.5886480212211609,10.350584030151367,0.08415139466524124,-5.410520825535059E-4,-0.18734364211559296,-0.06426302343606949
1898833130120650,-0.6183935403823853,10.356865882873535,0.12282254546880722,5.934119690209627E-4,-0.18439403176307678,-0.07030186057090759
1898833126120650,-0.5721279978752136,10.345806121826172,0.05067088454961777,-0.002199114765971899,-0.18957766890525818,-0.06473426520824432
1898833132120650,-0.6335058212280273,10.362056732177734,0.15858232975006104,2.7925267932005227E-4,-0.1820029318332672,-0.07099999487400055
1898833134122212,-0.6562027931213379,10.383624076843262,0.20041383802890778,-4.7123889089562E-4,-0.17837265133857727,-0.06354743987321854
1898833136139400,-0.6729526519775391,10.391227722167969,0.2263382524251938,0.0033335788175463676,-0.17533577978610992,-0.07175048440694809
1898833138122212,-0.6874902248382568,10.394330978393555,0.23835714161396027,0.009756390936672688,-0.17439329624176025,-0.07682939618825912
1898833140120650,-0.7034260034561157,10.405966758728027,0.24612392485141754,0.016632987186312675,-0.17119935154914856,-0.07101744413375854
1898833142120650,-0.7091912627220154,10.40725040435791,0.27846482396125793,0.01984439417719841,-0.16809265315532684,-0.07674212753772736
1898833144128462,-0.7136540412902832,10.434247016906738,0.2849961817264557,0.02206096239387989,-0.16739453375339508,-0.08536405116319656
1898833146120650,-0.7103309035301208,10.44475269317627,0.300481915473938,0.02439970336854458,-0.16824974119663239,-0.08826129883527756
1898833148120650,-0.7113556265830994,10.444743156433105,0.30557674169540405,0.02528982050716877,-0.16716763377189636,-0.08881980180740356
1898833150120650,-0.7225987911224365,10.44316291809082,0.3176722824573517,0.027838001027703285,-0.16393877565860748,-0.09091419726610184
1898833152120650,-0.7133955359458923,10.463197708129883,0.3346710801124573,0.029443703591823578,-0.15809191763401031,-0.09527752548456192
1898833154120650,-0.722981870174408,10.471175193786621,0.3521392047405243,0.031154127791523933,-0.15001104772090912,-0.09421287477016449
1898833156120650,-0.7289003133773804,10.480033874511719,0.3793085813522339,0.034435346722602844,-0.14741051197052002,-0.08976228535175323
1898833158122212,-0.7476995587348938,10.463284492492676,0.42358216643333435,0.03759439289569855,-0.14697417616844177,-0.09379399567842484
1898833160120650,-0.7634821534156799,10.446093559265137,0.4590354859828949,0.040107667446136475,-0.14165091514587402,-0.09494590759277344
1898833162120650,-0.7736240029335022,10.43325138092041,0.4856685996055603,0.04468042775988579,-0.1356469839811325,-0.08803440630435944
1898833164120650,-0.7906036972999573,10.421452522277832,0.5281991958618164,0.05150466784834862,-0.1304982602596283,-0.09231046587228775
1898833166120650,-0.7939268946647644,10.400603294372559,0.5599271655082703,0.05497787147760391,-0.12128292769193649,-0.09358455240726471
1898833168128462,-0.806731104850769,10.378499984741211,0.5778262615203857,0.058259088546037674,-0.10999064892530441,-0.08765043318271637
1898833170120650,-0.8093838691711426,10.360198974609375,0.6084911227226257,0.06351253390312195,-0.10304424166679382,-0.09211847931146622
1898833172126900,-0.8230882287025452,10.333806037902832,0.6523624658584595,0.07068583369255066,-0.0962025448679924,-0.09409070014953613
1898833174120650,-0.834561288356781,10.317764282226562,0.6799149513244629,0.07974409312009811,-0.08731882274150848,-0.09000662714242935
1898833178120650,-0.8768907189369202,10.269277572631836,0.7501704096794128,0.09482374042272568,-0.0665144994854927,-0.0930434986948967
1898833180120650,-0.897902250289917,10.25318717956543,0.7886021733283997,0.103114053606987,-0.0518362782895565,-0.09007643908262253
1898833176128462,-0.870407223701477,10.304069519042969,0.7166228890419006,0.08794713765382767,-0.07831292599439621,-0.09241518378257751
1898833182120650,-0.929620623588562,10.227550506591797,0.80351322889328,0.11513937264680862,-0.038641590625047684,-0.09065239876508713
1898833184120650,-0.962746798992157,10.21225643157959,0.8152257204055786,0.12995721399784088,-0.024748768657445908,-0.09124581515789032
1898833186120650,-0.9934883713722229,10.170042037963867,0.8177731037139893,0.14079570770263672,-0.010768681764602661,-0.08765043318271637
1898833188126900,-1.0128718614578247,10.137011528015137,0.8050838708877563,0.15231488645076752,0.00143117003608495,-0.08552113175392151
1898833190120650,-1.0385088920593262,10.120511054992676,0.7889469265937805,0.16626006364822388,0.015149458311498165,-0.08414231985807419
1898833192126900,-1.0715681314468384,10.088859558105469,0.7692282795906067,0.17818066477775574,0.029914943501353264,-0.07953465729951859
1898833194120650,-1.0981628894805908,10.053262710571289,0.7133476138114929,0.18844319880008698,0.0449422262609005,-0.07389724254608154
1898833196120650,-1.1220953464508057,10.026293754577637,0.6645154356956482,0.1990548074245453,0.058887407183647156,-0.0671253651380539
1898833198120650,-1.1464298963546753,9.990869522094727,0.5655104517936707,0.21165607869625092,0.07138396799564362,-0.06339035928249359
1898833200120650,-1.1632276773452759,9.958701133728027,0.4776911437511444,0.22078414261341095,0.08134979754686356,-0.058171823620796204
1898833202120650,-1.1778802871704102,9.941683769226074,0.40238869190216064,0.22631683945655823,0.08881980180740356,-0.04714134335517883
1898833204123775,-1.2189934253692627,9.907225608825684,0.2881182134151459,0.23633503913879395,0.096220001578331,-0.04120722413063049
1898833206125337,-1.2592352628707886,9.881875991821289,0.2155260294675827,0.2471386194229126,0.10419615358114243,-0.033999014645814896
1898833208126900,-1.2790687084197998,9.862990379333496,0.1397160291671753,0.2538232207298279,0.11035716533660889,-0.01864011585712433
1898833216144087,-1.3580390214920044,9.783235549926758,-0.30438920855522156,0.27946212887763977,0.13763666152954102,0.012391837313771248
1898833214120650,-1.3462979793548584,9.792390823364258,-0.1896686553955078,0.2739119827747345,0.1318770796060562,0.007504915818572044
1898833212120650,-1.3310707807540894,9.800042152404785,-0.06772717833518982,0.26892033219337463,0.12349949777126312,-0.009093165397644043
1898833210120650,-1.314225196838379,9.821484565734863,0.032072726637125015,0.26143285632133484,0.11527899652719498,-0.014102260582149029
1898833218120650,-1.3668975830078125,9.788348197937012,-0.4024844765663147,0.28529152274131775,0.14266321063041687,0.0154810706153512
1898833220120650,-1.366533637046814,9.802532196044922,-0.5017576217651367,0.2885552942752838,0.1443387269973755,0.028728120028972626
1898833222142525,-1.3563152551651,9.81285572052002,-0.645677924156189,0.2875255346298218,0.14039428532123566,0.036390114575624466
1898833226120650,-1.3310229778289795,9.85974407196045,-0.8452968597412109,0.278903603553772,0.13299408555030823,0.05262167751789093
1898833224126900,-1.3472939729690552,9.830037117004395,-0.738994300365448,0.2827956974506378,0.1356818974018097,0.04178318381309509
1898833228122212,-1.317126989364624,9.868066787719727,-0.9272647500038147,0.27930504083633423,0.12772318720817566,0.06054547056555748
1898833230120650,-1.2924762964248657,9.881694793701172,-0.9869569540023804,0.27892106771469116,0.12114330381155014,0.06607816368341446
1898833232120650,-1.2663507461547852,9.898472785949707,-1.0409319400787354,0.27602383494377136,0.11449360102415085,0.0745953693985939
1898833234120650,-1.24528169631958,9.900406837463379,-1.068589687347412,0.2739468812942505,0.10810569673776627,0.08162904530763626
1898833236120650,-1.2253141403198242,9.911018371582031,-1.115707516670227,0.27258551120758057,0.10065313428640366,0.08909905701875687
1898833238120650,-1.2130749225616455,9.93224048614502,-1.1698452234268188,0.2709972858428955,0.09117600321769714,0.09531243145465851
1898833240120650,-1.197838306427002,9.943828582763672,-1.1911823749542236,0.2707878351211548,0.08333947509527206,0.10177014768123627
1898833242120650,-1.1865376234054565,9.940390586853027,-1.217212200164795,0.2715732455253601,0.07606144994497299,0.11075859516859055
1898833244123775,-1.1447253227233887,9.967272758483887,-1.2754199504852295,0.26569145917892456,0.06724753230810165,0.11533135920763016
1898833246120650,-1.1349856853485107,9.981608390808105,-1.3127217292785645,0.25939083099365234,0.058573249727487564,0.12095131725072861
1898833248126900,-1.1187721490859985,9.995179176330566,-1.333608627319336,0.2537883222103119,0.04815363511443138,0.12892746925354004
1898833250120650,-1.0970710515975952,10.015501022338867,-1.3730459213256836,0.2497391551733017,0.036861352622509,0.1350710242986679
1898833252125337,-1.0853874683380127,10.031187057495117,-1.3811191320419312,0.24347342550754547,0.02869321219623089,0.14180800318717957
1898833254120650,-1.089045763015747,10.056221961975098,-1.3914334774017334,0.2306976169347763,0.017348572611808777,0.150325208902359
1898833256123775,-1.079219937324524,10.08082389831543,-1.3903703689575195,0.2214822769165039,0.003176499158143997,0.16065755486488342
1898833258120650,-1.0780420303344727,10.106040000915527,-1.392946481704712,0.21350613236427307,-0.013299409300088882,0.172822505235672
1898833260120650,-1.0754657983779907,10.141972541809082,-1.3973231315612793,0.20463985204696655,-0.03070034086704254,0.18530160188674927
1898833262120650,-1.0799669027328491,10.18571949005127,-1.3837528228759766,0.1944296807050705,-0.044366270303726196,0.19676841795444489
1898833266120650,-1.0640119314193726,10.277388572692871,-1.3195116519927979,0.1713913381099701,-0.07337363809347153,0.22331488132476807
1898833268120650,-1.047041893005371,10.312267303466797,-1.2677394151687622,0.16400858759880066,-0.08347909897565842,0.23260003328323364
1898833264120650,-1.0716638565063477,10.22844123840332,-1.3610941171646118,0.1829279512166977,-0.05881759524345398,0.20919516682624817
1898833270120650,-1.0308953523635864,10.358599662780762,-1.216800332069397,0.1584409922361374,-0.09522516280412674,0.23883084952831268
1898833272120650,-1.0138390064239502,10.436420440673828,-1.1278510093688965,0.15022048354148865,-0.10840240120887756,0.25249677896499634
1898833276120650,-0.9544437527656555,10.571664810180664,-0.9775621294975281,0.13847441971302032,-0.13461723923683167,0.27986353635787964
1898833278120650,-0.9060041904449463,10.660097122192383,-0.860533595085144,0.13554227352142334,-0.14704398810863495,0.2931804060935974
1898833274120650,-0.9807512164115906,10.500720024108887,-1.057145357131958,0.14302973449230194,-0.12140510231256485,0.267244815826416
1898833280120650,-0.8720927834510803,10.728092193603516,-0.7557058334350586,0.13315117359161377,-0.1578824818134308,0.30654963850975037
1898833282120650,-0.8296579122543335,10.798395156860352,-0.649690568447113,0.13283701241016388,-0.16428783535957336,0.31876692175865173
1898833284126900,-0.7533403038978577,10.87522029876709,-0.5172529220581055,0.12938125431537628,-0.16845917701721191,0.32737141847610474
1898833286120650,-0.705532968044281,10.949344635009766,-0.41860222816467285,0.12852604687213898,-0.1696809083223343,0.3338640332221985
1898833288122212,-0.6468462347984314,11.01803970336914,-0.32641589641571045,0.12838642299175262,-0.17030923068523407,0.341665655374527
1898833290120650,-0.5431198477745056,11.1013765335083,-0.2090904265642166,0.1315978318452835,-0.16912239789962769,0.34894368052482605
1898833292120650,-0.4636036455631256,11.164229393005371,-0.13328999280929565,0.13444271683692932,-0.1673247218132019,0.35414475202560425
1898833294120650,-0.3834361732006073,11.23669719696045,-0.08229350298643112,0.13350023329257965,-0.16580627858638763,0.3588920533657074
1898833296130025,-0.25529852509498596,11.351035118103027,0.002212242456153035,0.13571679592132568,-0.16653931140899658,0.36250486969947815
1898833300126900,-0.05912720412015915,11.534287452697754,0.09222465008497238,0.14493213593959808,-0.17491689324378967,0.3628888428211212
1898833298120650,-0.17213353514671326,11.42541790008545,0.052595820277929306,0.13983577489852905,-0.1710946261882782,0.3643549382686615
1898833304120650,0.09899545460939407,11.672710418701172,0.17809030413627625,0.14568263292312622,-0.1808684766292572,0.3568150997161865
1898833302120650,0.02483266033232212,11.602579116821289,0.13378798961639404,0.1454208344221115,-0.17746508121490479,0.3606548309326172
1898833306120650,0.21841822564601898,11.759265899658203,0.24044488370418549,0.14611896872520447,-0.18409733474254608,0.35126495361328125
1898833308128462,0.29576054215431213,11.83047866821289,0.3074154853820801,0.1454382836818695,-0.18514452874660492,0.34454545378685
1898833310120650,0.37013399600982666,11.900360107421875,0.3612467348575592,0.1474803239107132,-0.18657569587230682,0.3378084897994995
1898833312120650,0.46986687183380127,11.975969314575195,0.45206359028816223,0.1509186178445816,-0.18940313160419464,0.33140310645103455
1898833314120650,0.5479944348335266,12.015645980834961,0.522520124912262,0.15327481925487518,-0.19024088978767395,0.32272884249687195
1898833316120650,0.6324523091316223,12.04932689666748,0.5891364216804504,0.15687018632888794,-0.18676768243312836,0.3156253397464752
1898833318126900,0.7207887768745422,12.0823392868042,0.6858717799186707,0.1587027907371521,-0.18530160188674927,0.3027099072933197
1898833320120650,0.7818313837051392,12.096942901611328,0.7536181211471558,0.16353735327720642,-0.18245671689510345,0.2889392673969269
1898833322120650,0.8360552191734314,12.109469413757324,0.8046337366104126,0.17469000816345215,-0.1774127185344696,0.27862435579299927
1898833324123775,0.8898289799690247,12.11007308959961,0.8622861504554749,0.18336428701877594,-0.17184512317180634,0.2577851414680481
1898833326123775,0.9200342297554016,12.111635208129883,0.8884690999984741,0.1886875480413437,-0.16091935336589813,0.23968607187271118
1898833328122212,0.948247492313385,12.114181518554688,0.9216336011886597,0.1946914792060852,-0.1457698941230774,0.22656118869781494
1898833330120650,0.9903567433357239,12.106040954589844,0.9381343722343445,0.2007477730512619,-0.13145819306373596,0.20610593259334564
1898833332120650,1.000623106956482,12.102412223815918,0.9347825050354004,0.20322613418102264,-0.11967722326517105,0.1860869973897934
1898833334120650,1.0059956312179565,12.106731414794922,0.9193159937858582,0.20179496705532074,-0.10646508634090424,0.16720254719257355
1898833336130025,1.0041282176971436,12.113434791564941,0.8729164004325867,0.20497146248817444,-0.0904604122042656,0.14498449862003326
1898833340123775,0.963263988494873,12.152087211608887,0.7606474757194519,0.20786871016025543,-0.047909289598464966,0.10236355662345886
1898833338120650,1.0017914772033691,12.129744529724121,0.8379227519035339,0.20807814598083496,-0.07002261281013489,0.12468632310628891
1898833342120650,0.9343611598014832,12.14794921875,0.6975458860397339,0.2047620266675949,-0.024678954854607582,0.07808603346347809
1898833344120650,0.8902503848075867,12.144702911376953,0.6087592840194702,0.19778071343898773,-2.4434609804302454E-4,0.0564439482986927
1898833346120650,0.830232560634613,12.123970031738281,0.47911807894706726,0.18704693019390106,0.019984019920229912,0.034033920615911484
1898833348120650,0.7753574252128601,12.103915214538574,0.3775847554206848,0.17708110809326172,0.03808308392763138,0.015114551410079002
1898833350120650,0.718442440032959,12.083602905273438,0.2798151671886444,0.16779595613479614,0.05508258938789368,-1.9198621157556772E-4
1898833352120650,0.6180392503738403,12.030624389648438,0.1216924786567688,0.1537809669971466,0.07035422325134277,-0.021188296377658844
1898833354120650,0.5566901564598083,11.989933013916016,0.009174580685794353,0.14186036586761475,0.08920377492904663,-0.043563418090343475
1898833356120650,0.4822113513946533,11.934837341308594,-0.13310803472995758,0.12768828868865967,0.10780898481607437,-0.06276203691959381
1898833358120650,0.37181952595710754,11.85718822479248,-0.3011714220046997,0.10937978327274323,0.123272605240345,-0.0806342139840126
1898833360120650,0.29297366738319397,11.7945556640625,-0.39822277426719666,0.08686503767967224,0.1350535750389099,-0.0930260494351387
1898833362120650,0.22066877782344818,11.737018585205078,-0.5145331025123596,0.06311110407114029,0.1437453180551529,-0.10594148188829422
1898833364125337,0.10836157202720642,11.669233322143555,-0.6656168103218079,0.04082325100898743,0.15058700740337372,-0.11971213668584824
1898833366128462,0.03963840380311012,11.617547988891602,-0.7848289012908936,0.016283921897411346,0.15435691177845,-0.13062043488025665
1898833368126900,-0.03429454565048218,11.557088851928711,-0.890863299369812,-0.008482299745082855,0.15538665652275085,-0.14187781512737274
1898833370120650,-0.11657846719026566,11.483902931213379,-1.017286777496338,-0.03459242731332779,0.15172147750854492,-0.1524021476507187
1898833374120650,-0.2107567936182022,11.345375061035156,-1.2007496356964111,-0.09121090918779373,0.1284562349319458,-0.17102481424808502
1898833376122212,-0.2534884810447693,11.281095504760742,-1.239076018333435,-0.11990411579608917,0.10922270268201828,-0.17924530804157257
1898833372120650,-0.15893669426441193,11.425332069396973,-1.1110820770263672,-0.06138322874903679,0.14325661957263947,-0.16196654736995697
1898833378120650,-0.30559590458869934,11.21902847290039,-1.2625008821487427,-0.14529865980148315,0.0898495465517044,-0.18552850186824799
1898833380126900,-0.3849397599697113,11.112102508544922,-1.257961392402649,-0.17172294855117798,0.07157595455646515,-0.18992672860622406
1898833382120650,-0.43262267112731934,11.030174255371094,-1.2163598537445068,-0.19867083430290222,0.04939281940460205,-0.19395844638347626
1898833384120650,-0.4835808575153351,10.935047149658203,-1.1548479795455933,-0.2234894037246704,0.020402899011969566,-0.19722220301628113
1898833386120650,-0.5375844836235046,10.805356979370117,-1.0318626165390015,-0.24122194945812225,-0.009930923581123352,-0.19737929105758667
1898833388120650,-0.5717737078666687,10.722345352172852,-0.9021255970001221,-0.2586403489112854,-0.040369465947151184,-0.1932603120803833
1898833390120650,-0.629560112953186,10.624116897583008,-0.7690367698669434,-0.2747148275375366,-0.06815510988235474,-0.18936821818351746
1898833392120650,-0.6833243370056152,10.49903392791748,-0.5238321423530579,-0.28560566902160645,-0.09311331808567047,-0.1831897646188736
1898833394120650,-0.69731605052948,10.395307540893555,-0.33423057198524475,-0.294437050819397,-0.12229522317647934,-0.17495180666446686
1898833396120650,-0.7164505124092102,10.302154541015625,-0.14454273879528046,-0.2986432909965515,-0.1509535312652588,-0.1644623726606369
1898833398120650,-0.7525167465209961,10.179896354675293,0.13378798961639404,-0.3001966178417206,-0.17844246327877045,-0.15042993426322937
1898833400120650,-0.7646122574806213,10.095505714416504,0.36813244223594666,-0.3000744581222534,-0.2068215161561966,-0.13548991084098816
1898833404130025,-0.759996235370636,9.928400039672852,0.9144030809402466,-0.2845235764980316,-0.25679028034210205,-0.10232865065336227
1898833408126900,-0.7287375330924988,9.797686576843262,1.3888572454452515,-0.24839526414871216,-0.2895152270793915,-0.06841690838336945
1898833410120650,-0.6779996156692505,9.74170970916748,1.6811988353729248,-0.2284461408853531,-0.30866149067878723,-0.05085889250040054
1898833412120650,-0.6478901505470276,9.702301979064941,1.8732424974441528,-0.20600120723247528,-0.32621949911117554,-0.033824481070041656
1898833406123775,-0.7495766878128052,9.862674713134766,1.1529326438903809,-0.2681349217891693,-0.27310910820961,-0.08759807795286179
1898833414120650,-0.592210590839386,9.649897575378418,2.1328983306884766,-0.1765924096107483,-0.34234634041786194,-0.01705186627805233
1898833402120650,-0.7691708207130432,10.018250465393066,0.5974107384681702,-0.2961300015449524,-0.2335774153470993,-0.11709413677453995
1898833416147212,-0.5476688146591187,9.627870559692383,2.3327951431274414,-0.1457175314426422,-0.35236451029777527,1.7453292093705386E-4
1898833418120650,-0.5043816566467285,9.597962379455566,2.5130977630615234,-0.11590731889009476,-0.3559598922729492,0.020629791542887688
1898833420126900,-0.4403511583805084,9.56286334991455,2.7569615840911865,-0.08573057502508163,-0.35780996084213257,0.03735004737973213
1898833422120650,-0.39390361309051514,9.551188468933105,2.908179521560669,-0.05239478498697281,-0.35723400115966797,0.05066690966486931
1898833424120650,-0.340493768453598,9.53707218170166,3.0411438941955566,-0.018325956538319588,-0.3545636236667633,0.0691324919462204
1898833426120650,-0.2634771168231964,9.509576797485352,3.2134017944335938,0.020001472905278206,-0.3502003252506256,0.08393288403749466
1898833428126900,-0.21716366708278656,9.503946304321289,3.3275957107543945,0.058398716151714325,-0.3413864076137543,0.0941779688000679
1898833430120650,-0.16002844274044037,9.496697425842285,3.429368495941162,0.09354964643716812,-0.3314903974533081,0.10688396543264389
1898833432120650,-0.08434294164180756,9.495107650756836,3.5589616298675537,0.1345299780368805,-0.31897637248039246,0.11395254731178284
1898833434120650,-0.025196578353643417,9.496054649353027,3.6281349658966064,0.17578956484794617,-0.3020990490913391,0.12175416946411133
1898833436120650,0.03639186546206474,9.48267650604248,3.6815829277038574,0.21357594430446625,-0.2803173363208771,0.13292427361011505
1898833438120650,0.140070378780365,9.467726707458496,3.7401835918426514,0.2514146864414215,-0.25335198640823364,0.13501867651939392
1898833440120650,0.2052309662103653,9.454166412353516,3.759490489959717,0.285082072019577,-0.2261248528957367,0.13817772269248962
1898833442120650,0.2756875157356262,9.440135955810547,3.7457668781280518,0.31901127099990845,-0.19516271352767944,0.1445830762386322
1898833444126900,0.3514496386051178,9.432867050170898,3.7110509872436523,0.35128241777420044,-0.16111133992671967,0.14275047183036804
1898833446122212,0.4090924561023712,9.418099403381348,3.6383631229400635,0.3788062632083893,-0.126693457365036,0.14032447338104248
1898833448126900,0.45018652081489563,9.414929389953613,3.5400378704071045,0.40660935640335083,-0.09267698228359222,0.1402895599603653
1898833450122212,0.48574522137641907,9.407814025878906,3.3815128803253174,0.43336525559425354,-0.05976007506251335,0.13487903773784637
1898833452120650,0.511899471282959,9.41016960144043,3.2241947650909424,0.4568748474121094,-0.028902651742100716,0.1270250678062439
1898833456137837,0.5358989238739014,9.407230377197266,2.7823688983917236,0.49377110600471497,0.029251718893647194,0.11512191593647003
1898833454122212,0.5271457433700562,9.411741256713867,2.977036714553833,0.477556973695755,0.001483529806137085,0.12091641128063202
1898833458120650,0.5235352516174316,9.400660514831543,2.5724165439605713,0.506232738494873,0.05089380219578743,0.10855948179960251
1898833460126900,0.5156152844429016,9.383872032165527,2.2951486110687256,0.5176821351051331,0.07091272622346878,0.09923942387104034
1898833462120650,0.4933396279811859,9.382072448730469,2.0733020305633545,0.5250124931335449,0.09068730473518372,0.09567894786596298
1898833464125337,0.47279736399650574,9.397547721862793,1.8366495370864868,0.5260422229766846,0.10527826100587845,0.09566149860620499
1898833466126900,0.4288206696510315,9.382560729980469,1.5322412252426147,0.5268799662590027,0.11540117114782333,0.08576548099517822
1898833468131587,0.3819805383682251,9.369880676269531,1.303709864616394,0.527595579624176,0.12505283951759338,0.07744026184082031
1898833470120650,0.34273478388786316,9.347308158874512,1.0774482488632202,0.5219756364822388,0.1284736841917038,0.07588691264390945
1898833472120650,0.3040252923965454,9.313396453857422,0.8120270371437073,0.5101248025894165,0.12721705436706543,0.07180284708738327
1898833474122212,0.26961585879325867,9.293993949890137,0.6159802079200745,0.49808207154273987,0.12777554988861084,0.06581636518239975
1898833476120650,0.24635377526283264,9.261950492858887,0.445101261138916,0.4841717779636383,0.12625712156295776,0.06068509817123413
1898833478120650,0.2389509081840515,9.22031021118164,0.2577884793281555,0.4662821590900421,0.12458160519599915,0.05925392732024193
1898833480122212,0.2290293276309967,9.189711570739746,0.1277354508638382,0.4478863775730133,0.12164945155382156,0.05553637817502022
1898833482122212,0.24140256643295288,9.168815612792969,0.006512228399515152,0.42442917823791504,0.11564551293849945,0.047944195568561554
1898833484126900,0.26306530833244324,9.121908187866211,-0.13750380277633667,0.39990729093551636,0.10929251462221146,0.04707153141498566
1898833486128462,0.27690377831459045,9.086885452270508,-0.2282153069972992,0.37601372599601746,0.10037388652563095,0.04543092101812363
1898833488128462,0.31395643949508667,9.05420970916748,-0.29692888259887695,0.35006070137023926,0.09281660616397858,0.0383099764585495
1898833490122212,0.3470730483531952,9.015290260314941,-0.40616196393966675,0.32395055890083313,0.08508480340242386,0.03436553105711937
1898833492120650,0.36575740575790405,8.984308242797852,-0.469139039516449,0.2995683252811432,0.07663740962743759,0.03476695716381073
1898833494120650,0.38771700859069824,8.944239616394043,-0.5392412543296814,0.2724633514881134,0.06934192776679993,0.0316777266561985
1898833498120650,0.4019864499568939,8.859600067138672,-0.6221476793289185,0.21308724582195282,0.05546656250953674,0.023579398170113564
1898833496128462,0.3934248089790344,8.893204689025879,-0.5803928375244141,0.24127431213855743,0.06232570856809616,0.027698375284671783
1898833500120650,0.4010096490383148,8.809369087219238,-0.6742550730705261,0.1852492392063141,0.04567526653409004,0.017872171476483345
1898833502120650,0.39340564608573914,8.77196216583252,-0.6959273815155029,0.1560847908258438,0.03378957509994507,0.015271631069481373
1898833504120650,0.39216068387031555,8.741009712219238,-0.7031483054161072,0.12894491851329803,0.021450096741318703,0.011554080061614513
1898833506120650,0.3752959072589874,8.692483901977539,-0.7082910537719727,0.10072295367717743,0.008866272866725922,0.013857914134860039
1898833508126900,0.3627694249153137,8.670754432678223,-0.7153778672218323,0.07168067246675491,-0.004712388850748539,0.01771509274840355
1898833510120650,0.35165074467658997,8.643125534057617,-0.7097850441932678,0.04368559271097183,-0.015847589820623398,0.015795229002833366
1898833512122212,0.3389231860637665,8.600624084472656,-0.6626671552658081,0.020437804982066154,-0.02900737151503563,0.01811651699244976
1898833514122212,0.329777330160141,8.573951721191406,-0.608127236366272,-8.726646046852693E-5,-0.04558800160884857,0.02617993950843811
1898833518122212,0.33566707372665405,8.518023490905762,-0.47148534655570984,-0.04729842394590378,-0.07548549026250839,0.03902556374669075
1898833516120650,0.32395464181900024,8.541764259338379,-0.53678959608078,-0.02342231757938862,-0.060039326548576355,0.034487705677747726
1898833520122212,0.339028537273407,8.487292289733887,-0.38613682985305786,-0.06487388908863068,-0.09115854650735855,0.03862413763999939
1898833524122212,0.36196500062942505,8.455678939819336,-0.20977994799613953,-0.0884358361363411,-0.12079423666000366,0.04131194204092026
1898833522122212,0.3490746021270752,8.465322494506836,-0.31035560369491577,-0.07590436935424805,-0.10602875053882599,0.037227872759103775
1898833526120650,0.367117315530777,8.438210487365723,-0.11988247185945511,-0.1007927656173706,-0.132505401968956,0.0457974411547184
1898833528120650,0.38273710012435913,8.417352676391602,-0.03836468979716301,-0.1085943877696991,-0.14297737181186676,0.04747295379638672
1898833530120650,0.416303813457489,8.407804489135742,0.08806831389665604,-0.11466813087463379,-0.15280357003211975,0.05283111706376076
1898833532126900,0.4382155239582062,8.402939796447754,0.15773001313209534,-0.1180715262889862,-0.16261231899261475,0.059149209409952164
1898833536122212,0.5083081722259521,8.39866828918457,0.34610581398010254,-0.12246975302696228,-0.182631254196167,0.07061602175235748
1898833534120650,0.46967533230781555,8.397805213928223,0.2518700361251831,-0.11859512329101562,-0.17329373955726624,0.06297148019075394
1898833540128462,0.5977364182472229,8.411012649536133,0.5090456008911133,-0.12273155152797699,-0.19898498058319092,0.08026769012212753
1898833538120650,0.54620361328125,8.403964042663574,0.4177594482898712,-0.12383110821247101,-0.1906946748495102,0.07899360358715057
1898833542120650,0.6443467140197754,8.421030044555664,0.5845108032226562,-0.11978194862604141,-0.2062106430530548,0.08032005280256271
1898833544120650,0.7027077674865723,8.439762115478516,0.659439742565155,-0.11287043988704681,-0.21078340709209442,0.08155923336744308
1898833546120650,0.7647655010223389,8.467487335205078,0.7560984492301941,-0.10847221314907074,-0.21642082929611206,0.07707373797893524
1898833548120650,0.8143350481987,8.479640007019043,0.8071237206459045,-0.10381218045949936,-0.21868975460529327,0.07330382615327835
1898833550120650,0.8662509322166443,8.491927146911621,0.8657242059707642,-0.09635962545871735,-0.2183406949043274,0.07347836345434189
1898833552120650,0.9203694462776184,8.506349563598633,0.9197565317153931,-0.08895943313837051,-0.21786944568157196,0.06757915019989014
1898833554178462,0.9634459018707275,8.522754669189453,0.9563494920730591,-0.08009316027164459,-0.21252873539924622,0.05768313258886337
1898833556120650,1.0059478282928467,8.510754585266113,0.9839881658554077,-0.07168067246675491,-0.20561723411083221,0.05023057386279106
1898833558120650,1.0356167554855347,8.517650604248047,0.9826186895370483,-0.06380923837423325,-0.1970127671957016,0.045238934457302094
1898833560123775,1.0593576431274414,8.508437156677246,0.9651123285293579,-0.05770058557391167,-0.18572048842906952,0.043598324060440063
1898833562120650,1.0765001773834229,8.504951477050781,0.934705913066864,-0.05696754530072212,-0.17488199472427368,0.04426154866814613
1898833564126900,1.1024340391159058,8.486162185668945,0.8802138566970825,-0.05511749908328056,-0.1627694070339203,0.03890338912606239
1898833566120650,1.1174983978271484,8.482388496398926,0.8249652981758118,-0.05117305368185043,-0.14971433579921722,0.02958333119750023
1898833568128462,1.1395347118377686,8.477495193481445,0.7365139126777649,-0.051260318607091904,-0.139451801776886,0.022741639986634254
1898833570120650,1.1408371925354004,8.467880249023438,0.6638451218605042,-0.05159193277359009,-0.13034118711948395,0.014154620468616486
1898833572120650,1.1468801498413086,8.461807250976562,0.5670714974403381,-0.05146975815296173,-0.12119566649198532,0.0055850534699857235
1898833574120650,1.1566675901412964,8.45971965789795,0.4448522627353668,-0.05590289458632469,-0.1120501384139061,3.490658491500653E-5
1898833576145650,1.1533540487289429,8.460667610168457,0.35904407501220703,-0.060266219079494476,-0.10377727448940277,-0.009983283467590809
1898833578120650,1.1561312675476074,8.460811614990234,0.2698648273944855,-0.06457718461751938,-0.09658651798963547,-0.0270700566470623
1898833580120650,1.1531912088394165,8.466414451599121,0.17948850989341736,-0.07276277989149094,-0.08930850028991699,-0.03698352724313736
1898833582120650,1.1446008682250977,8.477581024169922,0.09161173552274704,-0.08114035427570343,-0.0838107094168663,-0.04562290757894516
1898833584122212,1.1366902589797974,8.48337459564209,0.016462530940771103,-0.09138543903827667,-0.0789237916469574,-0.06112143024802208
1898833586122212,1.119193434715271,8.491888999938965,-0.11476845294237137,-0.10201449692249298,-0.07103490084409714,-0.07290240377187729
1898833588120650,1.1015818119049072,8.493401527404785,-0.17792749404907227,-0.11220721900463104,-0.06611306965351105,-0.08070402592420578
1898833590120650,1.0845063924789429,8.482484817504883,-0.23625025153160095,-0.12639674544334412,-0.06569419056177139,-0.09007643908262253
1898833592120650,1.0628914833068848,8.47079086303711,-0.3044466972351074,-0.13901548087596893,-0.06459463387727737,-0.10264281183481216
1898833594120650,1.0303782224655151,8.46773624420166,-0.36629369854927063,-0.14934782683849335,-0.06253514438867569,-0.11592476814985275
1898833596122212,0.9942162036895752,8.461128234863281,-0.44445958733558655,-0.16180947422981262,-0.05878268927335739,-0.12840387225151062
1898833600120650,0.9273030161857605,8.432875633239746,-0.5002923607826233,-0.1912357211112976,-0.056810468435287476,-0.1474628746509552
1898833598120650,0.9677650928497314,8.447481155395508,-0.474980890750885,-0.17592918872833252,-0.05806710571050644,-0.13864895701408386
1898833602120650,0.8854715824127197,8.422266006469727,-0.5181244015693665,-0.2071182280778885,-0.054367005825042725,-0.15704472362995148
1898833604120650,0.8414086699485779,8.417074203491211,-0.5149544477462769,-0.22298327088356018,-0.05253440886735916,-0.1679181307554245
1898833606125337,0.8053998947143555,8.3984956741333,-0.5233341455459595,-0.23947662115097046,-0.050387654453516006,-0.17706365883350372
1898833608123775,0.7378833889961243,8.358416557312012,-0.5443935394287109,-0.25565582513809204,-0.04960225895047188,-0.18530160188674927
1898833610120650,0.7121313214302063,8.342528343200684,-0.5344624519348145,-0.2686934471130371,-0.04740314185619354,-0.19250981509685516
1898833612120650,0.6668426394462585,8.316134452819824,-0.5245408415794373,-0.28073620796203613,-0.04328416660428047,-0.20038124918937683
1898833614120650,0.5944994688034058,8.29007625579834,-0.5031558275222778,-0.2943672239780426,-0.03998549282550812,-0.20947441458702087
1898833616120650,0.5405436754226685,8.27230167388916,-0.4922574460506439,-0.3067066967487335,-0.03710569813847542,-0.21471039950847626
1898833618122212,0.4824603497982025,8.25763988494873,-0.47027868032455444,-0.316288560628891,-0.03354522958397865,-0.21767745912075043
1898833622120650,0.3187161386013031,8.225241661071777,-0.4075410068035126,-0.33597588539123535,-0.03291691094636917,-0.22087141871452332
1898833620120650,0.39159563183784485,8.2451810836792,-0.42435789108276367,-0.3265511095523834,-0.032934363931417465,-0.2197893112897873
1898833624120650,0.2522051930427551,8.211526870727539,-0.3797491192817688,-0.34318408370018005,-0.031101766973733902,-0.22050489485263824
1898833626120650,0.16046898066997528,8.184492111206055,-0.34270602464675903,-0.34716343879699707,-0.02958333119750023,-0.22572343051433563
1898833628120650,0.08875784277915955,8.173392295837402,-0.3181319534778595,-0.35217252373695374,-0.02701769582927227,-0.22628194093704224
1898833630122212,0.018942924216389656,8.167522430419922,-0.2896026372909546,-0.3571292757987976,-0.027209682390093803,-0.21697932481765747
1898833632120650,-0.07660488039255142,8.159305572509766,-0.2602593004703522,-0.35875242948532104,-0.028797931969165802,-0.21614156663417816
1898833634120650,-0.14321155846118927,8.150676727294922,-0.239927738904953,-0.35988688468933105,-0.028117254376411438,-0.21841050684452057
1898833636123775,-0.2204006314277649,8.129521369934082,-0.2002318799495697,-0.3586651682853699,-0.028361599892377853,-0.2165604531764984
1898833638120650,-0.2803514301776886,8.121007919311523,-0.1719324141740799,-0.3562391400337219,-0.030281461775302887,-0.212022602558136
1898833640120650,-0.3276321291923523,8.116085052490234,-0.1508442908525467,-0.35410985350608826,-0.03246312215924263,-0.20343557000160217
1898833642122212,-0.3806493580341339,8.12073040008545,-0.12729491293430328,-0.3500257730484009,-0.033283427357673645,-0.19425514340400696
1898833644122212,-0.44151952862739563,8.127806663513184,-0.11594640463590622,-0.34435346722602844,-0.03609341010451317,-0.18538887798786163
1898833646122212,-0.4826710522174835,8.138121604919434,-0.10338162630796432,-0.3390651047229767,-0.04141666367650032,-0.17845991253852844
1898833652120650,-0.6026780605316162,8.125249862670898,-0.07697837054729462,-0.3234269618988037,-0.06401867419481277,-0.14699162542819977
1898833650122212,-0.5698678493499756,8.125633239746094,-0.0823509618639946,-0.3277728259563446,-0.055745817720890045,-0.15948818624019623
1898833654120650,-0.6451798677444458,8.132155418395996,-0.061971515417099,-0.3185051381587982,-0.07332128286361694,-0.1385267823934555
1898833648122212,-0.5346730947494507,8.125872611999512,-0.0863732248544693,-0.33335790038108826,-0.04832816496491432,-0.1722465455532074
1898833656140962,-0.667647123336792,8.127711296081543,-0.049109868705272675,-0.31271064281463623,-0.08464846760034561,-0.12372639030218124
1898833658122212,-0.6888405680656433,8.121199607849121,-0.017688361927866936,-0.30405381321907043,-0.09672614932060242,-0.10719811916351318
1898833660120650,-0.6914454102516174,8.120298385620117,0.026317063719034195,-0.2900737226009369,-0.10796606540679932,-0.09548696130514145
1898833662120650,-0.6940311789512634,8.12332534790039,0.05844724923372269,-0.2805442214012146,-0.11758282780647278,-0.08471827954053879
1898833664120650,-0.7014627456665039,8.146615982055664,0.11235509812831879,-0.27118927240371704,-0.12578587234020233,-0.07264060527086258
1898833666120650,-0.689855694770813,8.159812927246094,0.16458700597286224,-0.25624924898147583,-0.13446016609668732,-0.06260495632886887
1898833668120650,-0.6695241928100586,8.182816505432129,0.2013140618801117,-0.24293237924575806,-0.14156365394592285,-0.04789183288812637
1898833670120650,-0.6555228233337402,8.199939727783203,0.24806801974773407,-0.22806216776371002,-0.14819590747356415,-0.026319565251469612
1898833672120650,-0.6139882206916809,8.214439392089844,0.2930885851383209,-0.21509437263011932,-0.1578650325536728,-0.015620696358382702
1898833674120650,-0.5947867631912231,8.239367485046387,0.3317789137363434,-0.20338322222232819,-0.16788321733474731,-0.01226966455578804
1898833676122212,-0.5219168066978455,8.270358085632324,0.36439749598503113,-0.1872389167547226,-0.1768716722726822,-0.005777040030807257
1898833678120650,-0.46481987833976746,8.300955772399902,0.3986537456512451,-0.17002996802330017,-0.1883559376001358,0.00411897711455822
1898833680120650,-0.39747580885887146,8.328383445739746,0.4191768169403076,-0.15346680581569672,-0.1995958536863327,0.016353735700249672
1898833682120650,-0.2996295392513275,8.396800994873047,0.4586045444011688,-0.1339365690946579,-0.20802579820156097,0.02617993950843811
1898833684125337,-0.22403982281684875,8.437434196472168,0.4825465679168701,-0.10930997133255005,-0.21471039950847626,0.03419100120663643
1898833686120650,-0.14428415894508362,8.479438781738281,0.5104533433914185,-0.09107127785682678,-0.2241002768278122,0.03857177495956421
1898833688126900,-0.03883394971489906,8.536162376403809,0.5326141119003296,-0.0754680335521698,-0.23249530792236328,0.04228932783007622
1898833690120650,0.04389050602912903,8.589150428771973,0.5526966452598572,-0.05555383116006851,-0.23886576294898987,0.044488441199064255
1898833692120650,0.12434525787830353,8.643279075622559,0.5782380104064941,-0.03761184588074684,-0.2447998821735382,0.0426209419965744
1898833694120650,0.21808303892612457,8.690712928771973,0.5730569362640381,-0.01918116770684719,-0.24963444471359253,0.041661009192466736
1898833698120650,0.3291069567203522,8.766609191894531,0.5585768222808838,0.009738937020301819,-0.24823817610740662,0.03206169977784157
1898833696140962,0.27899155020713806,8.733185768127441,0.5669853091239929,-0.0019896754529327154,-0.2508910894393921,0.03848451003432274
1898833700120650,0.39588603377342224,8.806122779846191,0.5451118350028992,0.02200860157608986,-0.2450791299343109,0.02909463830292225
1898833702120650,0.44792643189430237,8.809925079345703,0.5165825486183167,0.03755948692560196,-0.24467770755290985,0.027576202526688576
1898833704125337,0.49287036061286926,8.825640678405762,0.4903516471385956,0.05026548355817795,-0.24178045988082886,0.0223227608948946
1898833706120650,0.5414343476295471,8.840350151062012,0.4336952865123749,0.061243604868650436,-0.23699826002120972,0.015149458311498165
1898833708120650,0.5660275816917419,8.841307640075684,0.38813838362693787,0.06923720985651016,-0.2306801676750183,0.008796459063887596
1898833710120650,0.5723961591720581,8.843472480773926,0.3404746353626251,0.07480481266975403,-0.21875956654548645,0.0028623400721699
1898833712120650,0.5825476050376892,8.840283393859863,0.25994327664375305,0.07763224840164185,-0.20820032060146332,-0.004939281847327948
1898833714120650,0.5864453315734863,8.833895683288574,0.19949446618556976,0.07698646932840347,-0.20041616261005402,-0.0161268413066864
1898833716120650,0.5870391130447388,8.81916618347168,0.11028650403022766,0.07936011999845505,-0.19256217777729034,-0.02361430414021015
1898833718120650,0.5862537622451782,8.811553001403809,0.03846045583486557,0.08086110651493073,-0.18256144225597382,-0.030717793852090836
1898833720120650,0.5719460248947144,8.813095092773438,-0.044465113431215286,0.07742280513048172,-0.17118188738822937,-0.03405137360095978
1898833722120650,0.5563262701034546,8.804696083068848,-0.13917973637580872,0.07178539037704468,-0.15968017280101776,-0.03303908184170723
1898833724120650,0.5500438809394836,8.81507682800293,-0.22436542809009552,0.06351253390312195,-0.14933037757873535,-0.04122467711567879
1898833726120650,0.5359276533126831,8.818907737731934,-0.2978195548057556,0.05721189081668854,-0.13746212422847748,-0.05017821490764618
1898833728120650,0.5119856595993042,8.813122749328613,-0.3684771955013275,0.05249950289726257,-0.1287180334329605,-0.05504768341779709
1898833730120650,0.5203174948692322,8.819243431091309,-0.4129902124404907,0.04080579802393913,-0.1206720620393753,-0.05873033031821251
1898833732125337,0.5217252969741821,8.822968482971191,-0.4654615521430969,0.025569073855876923,-0.11267845332622528,-0.06089453771710396
1898833734120650,0.5277203321456909,8.84218978881836,-0.5209686756134033,0.01120501384139061,-0.10470230132341385,-0.06920230388641357
1898833736120650,0.533447265625,8.84815502166748,-0.5585960149765015,0.0023911010939627886,-0.09405579417943954,-0.07642796635627747
1898833738120650,0.540572464466095,8.852627754211426,-0.6037123203277588,-0.007470009382814169,-0.08473573625087738,-0.07770206034183502
1898833740120650,0.5601378679275513,8.848577499389648,-0.6492500901222229,-0.020001472905278206,-0.07787659019231796,-0.08974482864141464
1898833742120650,0.5611146688461304,8.866820335388184,-0.6655784845352173,-0.03087487444281578,-0.06960373371839523,-0.09946631640195847
1898833746120650,0.5517485737800598,8.863028526306152,-0.7144872546195984,-0.058660514652729034,-0.05841616913676262,-0.11112511157989502
1898833748120650,0.5514134168624878,8.854552268981934,-0.7329513430595398,-0.06705555319786072,-0.05548401549458504,-0.12025318294763565
1898833750120650,0.5442211627960205,8.835983276367188,-0.7170825600624084,-0.07942993193864822,-0.054593898355960846,-0.1207069680094719
1898833744120650,0.568833589553833,8.8727388381958,-0.7017500996589661,-0.04571017250418663,-0.06237806752324104,-0.10084512084722519
1898833752120650,0.5387623906135559,8.816417694091797,-0.6926712393760681,-0.09082693606615067,-0.05354670062661171,-0.12753120064735413
1898833754120650,0.5256134867668152,8.79490852355957,-0.6712479591369629,-0.09902998059988022,-0.05150466784834862,-0.14119713008403778
1898833756120650,0.5234586596488953,8.76952075958252,-0.6125134229660034,-0.10739010572433472,-0.04956734925508499,-0.1460666060447693
1898833758120650,0.5124166011810303,8.761897087097168,-0.5746467113494873,-0.11915362626314163,-0.04948008432984352,-0.14494960010051727
1898833760120650,0.5035772323608398,8.754043579101562,-0.5163622498512268,-0.12693779170513153,-0.04614650458097458,-0.14737559854984283
1898833762120650,0.4783998131752014,8.736078262329102,-0.43804314732551575,-0.13121385872364044,-0.04113740846514702,-0.15191346406936646
1898833764120650,0.47194504737854004,8.73364543914795,-0.37352418899536133,-0.1336747705936432,-0.037402406334877014,-0.15660838782787323
1898833766120650,0.4617457389831543,8.723196983337402,-0.323609858751297,-0.13374458253383636,-0.033999014645814896,-0.16081464290618896
1898833768120650,0.43737277388572693,8.712912559509277,-0.23758141696453094,-0.1379682719707489,-0.031956978142261505,-0.16294394433498383
1898833770120650,0.4074452519416809,8.702223777770996,-0.1711854189634323,-0.13892820477485657,-0.030613074079155922,-0.16194909811019897
1898833772120650,0.36933913826942444,8.69325065612793,-0.09783665835857391,-0.13402383029460907,-0.026337018236517906,-0.16022121906280518
1898833774120650,0.3184863030910492,8.685331344604492,-0.01159751322120428,-0.12552407383918762,-0.021764256060123444,-0.16055284440517426
1898833776120650,0.29290664196014404,8.6758394241333,0.047405194491147995,-0.11880455911159515,-0.017645278945565224,-0.15863297879695892
1898833780120650,0.20241539180278778,8.648756980895996,0.17789876461029053,-0.10836749523878098,-0.00874409917742014,-0.15170401334762573
1898833778120650,0.25350767374038696,8.663773536682129,0.09501149505376816,-0.11328931897878647,-0.011938052251935005,-0.15344934165477753
1898833782120650,0.16572663187980652,8.628472328186035,0.22946986556053162,-0.10197959095239639,-0.005305801052600145,-0.15022048354148865
1898833784120650,0.13337619602680206,8.627352714538574,0.28620287775993347,-0.09122835844755173,9.250245057046413E-4,-0.14646802842617035
1898833786122212,0.08892065286636353,8.615927696228027,0.3358394503593445,-0.07885397225618362,0.005288347601890564,-0.14275047183036804
1898833788122212,0.050105854868888855,8.600327491760254,0.36508703231811523,-0.0656592845916748,0.008726646192371845,-0.13756684958934784
1898833790120650,0.018923770636320114,8.594686508178711,0.39599138498306274,-0.05145230516791344,0.01377064734697342,-0.1313360184431076
1898833792120650,-0.02402820810675621,8.578146934509277,0.42718303203582764,-0.03522074595093727,0.019634954631328583,-0.12695525586605072
1898833794120650,-0.05583278089761734,8.568359375,0.43102335929870605,-0.020053833723068237,0.023527037352323532,-0.11843804270029068
1898833796120650,-0.10317093878984451,8.557729721069336,0.45879608392715454,-0.008133234456181526,0.02431243658065796,-0.10869910567998886
1898833798120650,-0.14010868966579437,8.549962997436523,0.4662468135356903,0.004817108623683453,0.02649409882724285,-0.10103710740804672
1898833800120650,-0.17197072505950928,8.539887428283691,0.4651454985141754,0.022200588136911392,0.028815384954214096,-0.08934340626001358
1898833802126900,-0.2271331399679184,8.539246559143066,0.4778730869293213,0.04394739121198654,0.03118903376162052,-0.0797964558005333
1898833806120650,-0.30211952328681946,8.524065971374512,0.48849377036094666,0.07014477998018265,0.03497639670968056,-0.05441936478018761
1898833804122212,-0.27021917700767517,8.531766891479492,0.4764557182788849,0.05951572582125664,0.03330088034272194,-0.06894050538539886
1898833808133150,-0.3313000500202179,8.518234252929688,0.5006946325302124,0.08456119894981384,0.039130281656980515,-0.04071853309869766
1898833810120650,-0.3516603410243988,8.532599449157715,0.509830892086029,0.10208430886268616,0.043650683015584946,-0.028064893558621407
1898833812120650,-0.3644549548625946,8.54492473602295,0.49953582882881165,0.12000884115695953,0.04684463515877724,-0.01621410809457302
1898833814120650,-0.35875675082206726,8.561981201171875,0.48553451895713806,0.13692107796669006,0.05146975815296173,-0.002687806962057948
1898833816142525,-0.34241873025894165,8.578606605529785,0.47907018661499023,0.15243706107139587,0.05412266030907631,0.00808087456971407
1898833818120650,-0.33162567019462585,8.600001335144043,0.4639101028442383,0.16573646664619446,0.05696754530072212,0.018675023689866066
1898833822120650,-0.27002763748168945,8.67045783996582,0.442678302526474,0.20498892664909363,0.061138883233070374,0.043388884514570236
1898833820120650,-0.30136293172836304,8.633539199829102,0.46298113465309143,0.18538887798786163,0.060528017580509186,0.03246312215924263
1898833824122212,-0.2453673779964447,8.714425086975098,0.4187746047973633,0.2194751501083374,0.06263986974954605,0.054628804326057434
1898833826125337,-0.18608692288398743,8.761093139648438,0.39678624272346497,0.23434536159038544,0.06370452046394348,0.06846926361322403
1898833830120650,-0.09603621810674667,8.852283477783203,0.3260902762413025,0.2738945186138153,0.06979571282863617,0.08361872285604477
1898833828126900,-0.14798082411289215,8.799725532531738,0.37063199281692505,0.25240951776504517,0.06574655324220657,0.07850491255521774
1898833832120650,-0.04557602480053902,8.909667015075684,0.269433856010437,0.2926393449306488,0.07424630969762802,0.08981464058160782
1898833834120650,-0.007412448525428772,8.950942993164062,0.21858103573322296,0.3096737563610077,0.07801621407270432,0.09777334332466125
1898833836120650,0.0399257093667984,9.011746406555176,0.14816278219223022,0.32703980803489685,0.07873180508613586,0.10302678495645523
1898833838120650,0.0677846372127533,9.050915718078613,0.09737696498632431,0.3415958285331726,0.07850491255521774,0.1062905490398407
1898833840120650,0.09889967739582062,9.096309661865234,0.035673607140779495,0.35618680715560913,0.08018042892217636,0.1091703474521637
1898833844123775,0.1526159942150116,9.225740432739258,-0.13010092079639435,0.3758392035961151,0.0855385884642601,0.11379546672105789
1898833842120650,0.1348414421081543,9.172513008117676,-0.06658753752708435,0.3672172725200653,0.08374089747667313,0.11362093687057495
1898833846120650,0.16723018884658813,9.269132614135742,-0.22016121447086334,0.38292524218559265,0.0846659243106842,0.10969394445419312
1898833848120650,0.20514477789402008,9.336860656738281,-0.3460579216480255,0.39043015241622925,0.08691739290952682,0.11299261450767517
1898833850120650,0.21510465443134308,9.373270034790039,-0.4269053041934967,0.39875537157058716,0.08777260780334473,0.113481305539608
1898833852120650,0.23214179277420044,9.403840065002441,-0.5171380043029785,0.4020889401435852,0.08459610491991043,0.1077217236161232
1898833854120650,0.24920767545700073,9.452912330627441,-0.6332088708877563,0.4032059609889984,0.08508480340242386,0.10899581015110016
1898833856120650,0.2515922784805298,9.49435043334961,-0.720281183719635,0.4034677743911743,0.08744099736213684,0.11053170263767242
1898833858130025,0.26767176389694214,9.55981731414795,-0.8309220671653748,0.4035899341106415,0.08862782269716263,0.10862929373979568
1898833860125337,0.2676238715648651,9.592369079589844,-0.9093177914619446,0.4009719491004944,0.09162978827953339,0.10646508634090424
1898833862120650,0.2757928669452667,9.616138458251953,-0.9790944457054138,0.3972369432449341,0.09496336430311203,0.0999550074338913
1898833864120650,0.287936270236969,9.648124694824219,-1.0582659244537354,0.3929259777069092,0.09875072538852692,0.09094911068677902
1898833866120650,0.2896409332752228,9.687111854553223,-1.117929458618164,0.38355356454849243,0.1033933013677597,0.08936085551977158
1898833868122212,0.2911923825740814,9.721205711364746,-1.1628446578979492,0.3718773126602173,0.10545279085636139,0.08646360784769058
1898833870120650,0.3027803301811218,9.760279655456543,-1.2309261560440063,0.35964253544807434,0.10588912665843964,0.07838273793458939
1898833872120650,0.30830615758895874,9.79459285736084,-1.30911123752594,0.3453134000301361,0.10852457582950592,0.07337363809347153
1898833878125337,0.34222719073295593,9.892641067504883,-1.496222734451294,0.3030589818954468,0.10215412080287933,0.05429719388484955
1898833876120650,0.33581072092056274,9.866399765014648,-1.4492485523223877,0.31670743227005005,0.10573204606771469,0.06033603101968765
1898833874120650,0.3268181085586548,9.825794219970703,-1.3764456510543823,0.33112385869026184,0.10925760865211487,0.06691592186689377
1898833880130025,0.3444298803806305,9.942717552185059,-1.53083336353302,0.2871241271495819,0.09731955826282501,0.0452214814722538
1898833882120650,0.3634685277938843,9.98592758178711,-1.5566716194152832,0.2676113247871399,0.0915774255990982,0.037000980228185654
1898833884120650,0.37532463669776917,10.018011093139648,-1.5637010335922241,0.25048965215682983,0.08443903177976608,0.029216811060905457
1898833886120650,0.37588968873023987,10.041674613952637,-1.569351315498352,0.23726005852222443,0.07721336930990219,0.02045525796711445
1898833888126900,0.3845183849334717,10.085220336914062,-1.5779609680175781,0.22394318878650665,0.06904522329568863,0.011798425577580929
1898833890120650,0.3890194594860077,10.111393928527832,-1.5765626430511475,0.20696114003658295,0.06068509817123413,0.0046774824149906635
1898833892126900,0.3891248106956482,10.136427879333496,-1.563614845275879,0.1878148764371872,0.051923543214797974,0.0013613568153232336
1898833894120650,0.39178717136383057,10.174505233764648,-1.508739709854126,0.17057102918624878,0.03937462717294693,-0.006003932561725378
1898833896120650,0.39430588483810425,10.189262390136719,-1.4566514492034912,0.15430456399917603,0.025499260053038597,-0.01696459949016571
1898833898120650,0.4047733247280121,10.214546203613281,-1.350521206855774,0.14271557331085205,0.01392772700637579,-0.02612757869064808
1898833900120650,0.40774211287498474,10.236217498779297,-1.272585153579712,0.13231341540813446,0.0026354470755904913,-0.034400440752506256
1898833902120650,0.4407438039779663,10.255715370178223,-1.1843254566192627,0.12072442471981049,-0.006998770404607058,-0.0380132719874382
1898833904120650,0.46731942892074585,10.280472755432129,-1.0744985342025757,0.11152654141187668,-0.013404129073023796,-0.039269909262657166
1898833906122212,0.5009148716926575,10.322227478027344,-0.9280979037284851,0.1002517119050026,-0.02117084339261055,-0.0434936061501503
1898833908120650,0.5308424234390259,10.360745429992676,-0.8057158589363098,0.09210102260112762,-0.029618237167596817,-0.05253440886735916
1898833910120650,0.5620148777961731,10.398238182067871,-0.6985610127449036,0.08705702424049377,-0.03691371530294418,-0.06642723083496094
1898833912122212,0.5929384231567383,10.44071102142334,-0.5591131448745728,0.0823795422911644,-0.04213224723935127,-0.0717155784368515
1898833914120650,0.6317532062530518,10.473511695861816,-0.4598112106323242,0.08000589162111282,-0.04419173672795296,-0.07410667836666107
1898833916120650,0.6553600430488586,10.517268180847168,-0.32235532999038696,0.07370525598526001,-0.04225442185997963,-0.08372344076633453
1898833918120650,0.6746286153793335,10.554158210754395,-0.20814232528209686,0.06867870688438416,-0.04246386140584946,-0.0916123315691948
1898833920120650,0.6854791045188904,10.58788776397705,-0.1234450414776802,0.06733480095863342,-0.04495968297123909,-0.10101965814828873
1898833926120650,0.6952762007713318,10.703058242797852,0.23391351103782654,0.06679374724626541,-0.0535816065967083,-0.12534955143928528
1898833924126900,0.6968755125999451,10.669002532958984,0.09708967059850693,0.06705555319786072,-0.052900929003953934,-0.11819369345903397
1898833922120650,0.6977565884590149,10.63388442993164,-0.0025570073630660772,0.06754424422979355,-0.04862487316131592,-0.1106189712882042
1898833928120650,0.6932171583175659,10.731348991394043,0.3393828868865967,0.06876597553491592,-0.05302310362458229,-0.1302015632390976
1898833932120650,0.6886107325553894,10.808250427246094,0.5235352516174316,0.07042403519153595,-0.044488441199064255,-0.15016812086105347
1898833934120650,0.6758161187171936,10.842037200927734,0.6557239294052124,0.07361798733472824,-0.03490658476948738,-0.15662585198879242
1898833936120650,0.6530711650848389,10.874129295349121,0.7286322116851807,0.07672467082738876,-0.028239427134394646,-0.15692254900932312
1898833930120650,0.6951420903205872,10.770575523376465,0.4430901110172272,0.06887069344520569,-0.051539573818445206,-0.13807299733161926
1898833940128462,0.5913773775100708,10.977319717407227,0.892606258392334,0.08829620480537415,-0.01408480666577816,-0.1633104532957077
1898833938130025,0.6119483709335327,10.93393611907959,0.8110597729682922,0.08161159604787827,-0.02183406800031662,-0.15917402505874634
1898833942120650,0.5626181960105896,11.021084785461426,0.9663955569267273,0.09470156580209732,-0.007435102481395006,-0.16872097551822662
1898833944120650,0.5310243368148804,11.065042495727539,1.0328011512756348,0.10365510731935501,-0.0019373154500499368,-0.17507398128509521
1898833946120650,0.47315171360969543,11.122733116149902,1.1321030855178833,0.11601203680038452,0.006230825558304787,-0.17921040952205658
1898833948122212,0.4235342741012573,11.16408634185791,1.212165117263794,0.12950342893600464,0.01788962446153164,-0.18130479753017426
1898833950120650,0.3590727746486664,11.237635612487793,1.3021584749221802,0.14655528962612152,0.03551745042204857,-0.18327702581882477
1898833952123775,0.2969576120376587,11.296236038208008,1.366351842880249,0.16573646664619446,0.05318018049001694,-0.1863837093114853
1898833954120650,0.24565467238426208,11.341133117675781,1.4049654006958008,0.18538887798786163,0.07297221571207047,-0.1918640434741974
1898833956120650,0.16533400118350983,11.406848907470703,1.4207384586334229,0.2064899057149887,0.09714502841234207,-0.19315558671951294
1898833958122212,0.09256941080093384,11.446467399597168,1.421044945716858,0.22504276037216187,0.12264428287744522,-0.1947089284658432
1898833960120650,0.025933992117643356,11.48957347869873,1.3859459161758423,0.2413790374994278,0.152105450630188,-0.20120155811309814
1898833962120650,-0.05926128104329109,11.541891098022461,1.2894213199615479,0.2568950057029724,0.1803099662065506,-0.19970057904720306
1898833966120650,-0.2061311900615692,11.619807243347168,1.0338449478149414,0.2888345420360565,0.24469515681266785,-0.20409880578517914
1898833968120650,-0.310068279504776,11.66749095916748,0.7991653680801392,0.2990446984767914,0.27871161699295044,-0.20029398798942566
1898833970120650,-0.4058555066585541,11.695053100585938,0.5960795879364014,0.30724775791168213,0.30773645639419556,-0.19535470008850098
1898833964123775,-0.13038823008537292,11.583492279052734,1.169366478919983,0.27467992901802063,0.2108532190322876,-0.19865337014198303
1898833972120650,-0.4969884157180786,11.729911804199219,0.38651034235954285,0.30752700567245483,0.3338989317417145,-0.19313813745975494
1898833974120650,-0.6347220540046692,11.751872062683105,0.11247959733009338,0.3043854236602783,0.36131805181503296,-0.18390534818172455
1898833976122212,-0.731505274772644,11.764801025390625,-0.09737696498632431,0.2961823642253876,0.3884753882884979,-0.17381733655929565
1898833978122212,-0.8333162665367126,11.779329299926758,-0.39315664768218994,0.2845235764980316,0.41489967703819275,-0.16627751290798187
