Timestamp,Ax,Ay,Az,Gx,Gy,Gz
1834762016799816,0.1893143206834793,9.50551700592041,-0.06454767286777496,0.033510319888591766,-0.0771959125995636,0.017784904688596725
1834762020799816,0.24864263832569122,9.512441635131836,-0.09157342463731766,0.027454029768705368,-0.07815584540367126,0.016231561079621315
1834762022799816,0.26419538259506226,9.529468536376953,-0.08963891118764877,0.026912976056337357,-0.076619952917099,0.014870204962790012
1834762024799816,0.30009880661964417,9.537015914916992,-0.10092038661241531,0.022444933652877808,-0.07613126188516617,0.010873401537537575
1834762026799816,0.32037293910980225,9.547693252563477,-0.09866983443498611,0.01776745170354843,-0.07738789916038513,0.0076445420272648335
1834762028801379,0.3511240482330322,9.555469512939453,-0.09743443131446838,0.013892821036279202,-0.07983136177062988,0.005096361506730318
1834762030806066,0.3551846146583557,9.568943977355957,-0.08262868970632553,0.010716321878135204,-0.07986626774072647,0.002007128670811653
1834762032799816,0.36405274271965027,9.568321228027344,-0.07444052398204803,0.005794493015855551,-0.07899360358715057,-0.0010471974965184927
1834762034801379,0.38284245133399963,9.57288932800293,-0.044800300151109695,0.0017976891249418259,-0.07703883200883865,-0.0050090947188436985
1834762036799816,0.38415443897247314,9.545672416687012,-0.030933085829019547,6.457717972807586E-4,-0.07276277989149094,-0.009721484035253525
1834762038807629,0.3881288170814514,9.531498908996582,-0.030961817130446434,-0.002007128670811653,-0.06757915019989014,-0.01392772700637579
1834762040799816,0.39476555585861206,9.546314239501953,-0.007766790222376585,-0.007260569836944342,-0.06314601004123688,-0.01186823844909668
1834762042799816,0.4074835479259491,9.542205810546875,0.003983951639384031,-0.00874409917742014,-0.05967280641198158,-0.013229595497250557
1834762044799816,0.40885302424430847,9.536067008972168,0.018377890810370445,-0.010995574295520782,-0.05672319978475571,-0.020804325118660927
1834762046804504,0.40222588181495667,9.542387962341309,0.022170307114720345,-0.01665044017136097,-0.05190609022974968,-0.020176006481051445
1834762050799816,0.38838738203048706,9.550010681152344,0.04362235590815544,-0.022794000804424286,-0.04656538367271423,-0.025830872356891632
1834762054799816,0.3520530164241791,9.558257102966309,0.03357628732919693,-0.026947883889079094,-0.03824016451835632,-0.026563910767436028
1834762052799816,0.3699711859226227,9.552204132080078,0.05665638670325279,-0.024748768657445908,-0.04164355620741844,-0.025132741779088974
1834762048799816,0.40008068084716797,9.548755645751953,0.02931460551917553,-0.020717058330774307,-0.04916592314839363,-0.020751964300870895
1834762056799816,0.34550246596336365,9.570745468139648,0.016500838100910187,-0.02776818908751011,-0.03621558099985123,-0.032096605747938156
1834762058809191,0.33268868923187256,9.57763957977295,0.0012066776398569345,-0.0293738916516304,-0.036075957119464874,-0.031014500185847282
1834762060857629,0.33106064796447754,9.586661338806152,0.0063685765489935875,-0.028099801391363144,-0.03960151970386505,-0.027174776419997215
1834762062799816,0.31505781412124634,9.585789680480957,0.006119579542428255,-0.030455995351076126,-0.04438372328877449,-0.026110125705599785
1834762064799816,0.30417853593826294,9.584219932556152,0.0019823990296572447,-0.032847095280885696,-0.04682718217372894,-0.0270700566470623
1834762066799816,0.2979632019996643,9.584716796875,0.010457873344421387,-0.03136356547474861,-0.05077162757515907,-0.02905973233282566
1834762068802941,0.2763291895389557,9.575618743896484,-0.01742021180689335,-0.030019663274288177,-0.05546656250953674,-0.02857103943824768
1834762070799816,0.25879403948783875,9.558697700500488,-0.007900865748524666,-0.027838001027703285,-0.0587652362883091,-0.027122415602207184
1834762072799816,0.2486809343099594,9.53827953338623,0.0029879636131227016,-0.026110125705599785,-0.061941735446453094,-0.025185100734233856
1834762074807629,0.2384050339460373,9.526710510253906,0.0012641384964808822,-0.023753931745886803,-0.06447245925664902,-0.02241002768278122
1834762076799816,0.21808303892612457,9.523856163024902,0.005803545005619526,-0.02223549410700798,-0.06544984877109528,-0.02099631167948246
1834762078799816,0.19717687368392944,9.503726959228516,0.012028468772768974,-0.020874137058854103,-0.06504841893911362,-0.017261305823922157
1834762080806066,0.11963346600532532,9.44343090057373,0.02827073261141777,-0.018971728160977364,-0.06874851882457733,-0.009983283467590809
1834762082799816,0.06196194142103195,9.410208702087402,0.024353818967938423,-0.017418386414647102,-0.07391469180583954,-0.0017802357906475663
1834762084799816,0.06999687850475311,9.43982982635498,0.022553378716111183,-0.018709929659962654,-0.07326892018318176,0.005078908056020737
1834762086806066,0.1267586201429367,9.460880279541016,0.0323408767580986,-0.020263273268938065,-0.07442083954811096,0.006492624990642071
1834762088799816,0.1837501972913742,9.453438758850098,0.03839341551065445,-0.016580628231167793,-0.07681193947792053,0.0042236968874931335
1834762090799816,0.21856188774108887,9.456933975219727,0.05971139296889305,-0.013788101263344288,-0.07803367078304291,0.004258603323251009
1834762092799816,0.25737667083740234,9.490069389343262,0.07467994093894958,-0.01326450239866972,-0.08105309307575226,0.006370451766997576
1834762094799816,0.3080858886241913,9.508227348327637,0.06128198653459549,-0.01539380382746458,-0.0840899646282196,0.007749261800199747
1834762096799816,0.3482414186000824,9.52791690826416,0.020178331062197685,-0.01679006777703762,-0.08862782269716263,0.007853982038795948
1834762098806066,0.35640087723731995,9.486191749572754,-0.028232425451278687,-0.015097098425030708,-0.09843657165765762,0.010890854522585869
1834762100801379,0.36327701807022095,9.51577377319336,-0.014796166680753231,-0.009442231617867947,-0.10852457582950592,0.01005309633910656
1834762102799816,0.3662649989128113,9.641239166259766,0.0944177433848381,-0.003263765713199973,-0.11335913091897964,0.003926991019397974
1834762104799816,0.3152301609516144,9.687342643737793,0.1843918412923813,0.0010646508308127522,-0.1146332249045372,0.0050090947188436985
1834762106802941,0.24073219299316406,9.669702529907227,0.21374474465847015,0.0080634206533432,-0.11677998304367065,0.009442231617867947
1834762108801379,0.21076636016368866,9.652396202087402,0.12123279273509979,0.013142329640686512,-0.12177161872386932,0.008115780539810658
1834762110801379,0.273264616727829,9.669720649719238,0.014920664951205254,0.016022123396396637,-0.1270076036453247,0.007435102481395006
1834762112799816,0.33352187275886536,9.67543888092041,-0.0584089420735836,0.016894787549972534,-0.13206906616687775,0.010995574295520782
1834762114799816,0.40185239911079407,9.60184097290039,-0.07363606989383698,0.01673770695924759,-0.13733996450901031,0.009494591504335403
1834762116799816,0.44424891471862793,9.503668785095215,-0.14360421895980835,0.013665927574038506,-0.14123204350471497,0.006649704650044441
1834762118799816,0.4872583746910095,9.50182056427002,-0.20263564586639404,0.005201081279665232,-0.1411098688840866,0.006387905217707157
1834762120799816,0.5280459523200989,9.534908294677734,-0.14866076409816742,2.9670598451048136E-4,-0.1353677362203598,0.0026703537441790104
1834762122799816,0.5269638299942017,9.520475387573242,-0.06204812973737717,-0.0012915435945615172,-0.12253956496715546,-7.15585018042475E-4
1834762124799816,0.5303922891616821,9.479966163635254,0.08254249393939972,-0.007801621686667204,-0.10852457582950592,-0.0024434609804302454
1834762126809191,0.5557900071144104,9.488882064819336,0.11737334728240967,-0.01021017599850893,-0.09988519549369812,-0.008115780539810658
1834762128799816,0.5711320042610168,9.528348922729492,0.08487924188375473,-0.010245082899928093,-0.09098401665687561,-0.01251401100307703
1834762130799816,0.5737656354904175,9.562164306640625,0.09313444793224335,-0.015655603259801865,-0.08166395872831345,-0.013543754816055298
1834762132799816,0.5542768836021423,9.58619213104248,0.11579317599534988,-0.019914206117391586,-0.07391469180583954,-0.019477874040603638
1834762134799816,0.5314553380012512,9.621750831604004,0.15368859469890594,-0.02419026382267475,-0.06187192350625992,-0.025481807067990303
1834762136799816,0.5274713635444641,9.638998985290527,0.21131223440170288,-0.029356438666582108,-0.04614650458097458,-0.02825688011944294
1834762138806066,0.5067758560180664,9.636240005493164,0.24170902371406555,-0.032882001250982285,-0.034836772829294205,-0.034749504178762436
1834762140799816,0.4949868321418762,9.611340522766113,0.19357599318027496,-0.03497639670968056,-0.02848377265036106,-0.04225442185997963
1834762142801379,0.5000051259994507,9.617499351501465,0.1659086048603058,-0.0348542258143425,-0.021048670634627342,-0.05146975815296173
1834762144799816,0.5100894570350647,9.633108139038086,0.16586071252822876,-0.03778637945652008,-0.012461651116609573,-0.05886995419859886
1834762146806066,0.49092626571655273,9.634392738342285,0.1499057561159134,-0.04197516664862633,-0.004206243436783552,-0.062343161553144455
1834762148801379,0.4655669033527374,9.640167236328125,0.12148179858922958,-0.04920083284378052,-2.7925267932005227E-4,-0.0674046128988266
1834762150801379,0.43137767910957336,9.635905265808105,0.11937489360570908,-0.05108578875660896,0.0025830871891230345,-0.07117452472448349
1834762152799816,0.3780444264411926,9.624786376953125,0.10833284258842468,-0.04845033958554268,0.006457718089222908,-0.07131415605545044
1834762154799816,0.29655539989471436,9.621416091918945,0.10412862151861191,-0.05160938575863838,0.005742133129388094,-0.07466518878936768
1834762156799816,0.23806025087833405,9.605566024780273,0.0963139459490776,-0.05351179465651512,0.005358160939067602,-0.07908086478710175
1834762158806066,0.17968961596488953,9.588691711425781,0.10624509304761887,-0.056583575904369354,0.004886921960860491,-0.0783303752541542
1834762160799816,0.12271720170974731,9.572640419006348,0.09699389338493347,-0.0590444877743721,0.0037350046914070845,-0.07585200667381287
1834762162799816,0.07824251055717468,9.560765266418457,0.09116162359714508,-0.057299159467220306,0.003752457909286022,-0.07578219473361969
1834762164799816,0.03872860595583916,9.552519798278809,0.09865068644285202,-0.05372123420238495,1.5707963029854E-4,-0.07784168422222137
1834762166806066,0.0035529951564967632,9.534286499023438,0.0928950235247612,-0.053389620035886765,-0.001658062799833715,-0.07560766488313675
1834762168812316,-0.033308133482933044,9.513389587402344,0.08122090250253677,-0.05532693862915039,-0.003490658476948738,-0.07145377993583679
1834762170806066,-0.07351156324148178,9.495902061462402,0.08044517785310745,-0.05510004609823227,-0.006213372107595205,-0.06845181435346603
1834762172799816,-0.1319683939218521,9.489648818969727,0.09722373634576797,-0.053791046142578125,-0.008499753661453724,-0.06332054734230042
1834762174799816,-0.1707065850496292,9.47400951385498,0.11044930666685104,-0.05522221699357033,-0.011763518676161766,-0.057421330362558365
1834762176799816,-0.20499154925346375,9.45683765411377,0.12456552684307098,-0.05775294452905655,-0.012531463988125324,-0.05050982907414436
1834762178809191,-0.24743595719337463,9.432456016540527,0.1461133360862732,-0.05843362212181091,-0.013823007233440876,-0.044889867305755615
1834762180799816,-0.2663501501083374,9.428778648376465,0.15412913262844086,-0.056094881147146225,-0.01567305624485016,-0.03963642567396164
1834762182804504,-0.28000667691230774,9.4160795211792,0.17495867609977722,-0.05160938575863838,-0.016022123396396637,-0.03007202222943306
1834762184799816,-0.28571444749832153,9.410619735717773,0.2059396505355835,-0.05050982907414436,-0.017086774110794067,-0.024591689929366112
1834762186801379,-0.28110799193382263,9.40778636932373,0.23891259729862213,-0.04965461790561676,-0.01944296807050705,-0.023893557488918304
1834762188802941,-0.270180881023407,9.413905143737793,0.25955063104629517,-0.048921577632427216,-0.019739674404263496,-0.015463616698980331
1834762190806066,-0.24821168184280396,9.415417671203613,0.28877902030944824,-0.04735078290104866,-0.019285887479782104,-0.007557275705039501
1834762192799816,-0.2309255301952362,9.42391300201416,0.3188789486885071,-0.04415683075785637,-0.018168877810239792,-0.004433136433362961
1834762194799816,-0.20963630080223083,9.433183670043945,0.3530585765838623,-0.04162610322237015,-0.015795229002833366,0.0031241392716765404
1834762196799816,-0.1884811371564865,9.434879302978516,0.37279635667800903,-0.03794345632195473,-0.0154810706153512,0.007295476272702217
1834762198809191,-0.16783353686332703,9.445375442504883,0.40088513493537903,-0.03307398781180382,-0.014119713567197323,0.007627088576555252
1834762200799816,-0.14401602745056152,9.466865539550781,0.4355723261833191,-0.030281461775302887,-0.013124875724315643,0.014381512999534607
1834762202799816,-0.12348334491252899,9.476930618286133,0.44585782289505005,-0.027960173785686493,-0.013229595497250557,0.021118484437465668
1834762204799816,-0.11366712301969528,9.495460510253906,0.4568902850151062,-0.027384215965867043,-0.011780972592532635,0.024242622777819633
1834762206810754,-0.0821019634604454,9.501657485961914,0.4712650775909424,-0.02649409882724285,-0.008936085738241673,0.02914699912071228
1834762208807629,-0.061004262417554855,9.510890007019043,0.4723281264305115,-0.022741639986634254,-0.0020943949930369854,0.03132865950465202
1834762210799816,-0.03158430755138397,9.53005313873291,0.44750502705574036,-0.021118484437465668,0.0031590459402650595,0.03214896470308304
1834762212799816,-0.013311761431396008,9.542790412902832,0.42337146401405334,-0.02209586836397648,0.0067544239573180676,0.03586651757359505
1834762214799816,0.0027772739995270967,9.550154685974121,0.4126741886138916,-0.019303342327475548,0.01186823844909668,0.036861352622509
1834762216799816,0.018904617056250572,9.563283920288086,0.37403178215026855,-0.016371188685297966,0.0159872155636549,0.03556980937719345
1834762218806066,0.041620802134275436,9.577180862426758,0.3362608253955841,-0.015184364281594753,0.023177972063422203,0.03729768469929695
1834762220799816,0.05503791198134422,9.582610130310059,0.29813554883003235,-0.011885692365467548,0.028937559574842453,0.038781214505434036
1834762222818566,0.0779552087187767,9.580167770385742,0.2522626519203186,-0.015289084054529667,0.032759830355644226,0.03684389963746071
1834762224799816,0.08287768810987473,9.586421966552734,0.22647231817245483,-0.02033308520913124,0.038606684654951096,0.03675663471221924
1834762226817004,0.08146989345550537,9.583127975463867,0.20021271705627441,-0.019896753132343292,0.04279547184705734,0.039706241339445114
1834762228801379,0.08599972724914551,9.592120170593262,0.17061081528663635,-0.019984019920229912,0.04611159861087799,0.03940953314304352
1834762230802941,0.08428547531366348,9.594304084777832,0.1454046666622162,-0.02151990868151188,0.04991641640663147,0.036564648151397705
1834762232799816,0.08719681948423386,9.59152603149414,0.11480676382780075,-0.024696409702301025,0.050649452954530716,0.03691371530294418
1834762234813879,0.07970776408910751,9.608898162841797,0.07652826607227325,-0.028413960710167885,0.051312681287527084,0.035901423543691635
1834762236799816,0.07746678590774536,9.617469787597656,0.05132210999727249,-0.028815384954214096,0.05496041849255562,0.03387684002518654
1834762238802941,0.08716809749603271,9.617431640625,0.02113601379096508,-0.029914943501353264,0.058311451226472855,0.036739181727170944
1834762240799816,0.0715579017996788,9.620630264282227,-0.005698200315237045,-0.034662239253520966,0.06091199070215225,0.03729768469929695
1834762242799816,0.08051221817731857,9.62120532989502,-0.02452620305120945,-0.03529055789113045,0.061941735446453094,0.03459242731332779
1834762244799816,0.08109639585018158,9.61094856262207,-0.033279404044151306,-0.033510319888591766,0.06037093698978424,0.032620202749967575
1834762246810754,0.07218039035797119,9.615678787231445,-0.05712565407156944,-0.035011306405067444,0.0607723630964756,0.03490658476948738
1834762248799816,0.060180652886629105,9.626702308654785,-0.06931692361831665,-0.03817034885287285,0.060964349657297134,0.03396410867571831
1834762250799816,0.05031654238700867,9.624527931213379,-0.07371268421411514,-0.04366813600063324,0.05778785049915314,0.029304077848792076
1834762252799816,0.05697242170572281,9.61142635345459,-0.08770439773797989,-0.044366270303726196,0.056461401283741,0.03321361541748047
1834762254806066,0.055248599499464035,9.621319770812988,-0.09066362679004669,-0.04173082113265991,0.05578072369098663,0.04150392860174179
1834762256806066,0.059874195605516434,9.626174926757812,-0.10236648470163345,-0.03920009359717369,0.0518362782895565,0.03792600333690643
1834762260799816,0.10232818126678467,9.663122177124023,-0.09450393170118332,-0.03799581900238991,0.04879940673708916,0.03654719516634941
1834762258810754,0.07708371430635452,9.644428253173828,-0.09282799065113068,-0.039392080157995224,0.049235738813877106,0.03701843321323395
1834762264799816,0.12764926254749298,9.672009468078613,-0.046763546764850616,-0.03691371530294418,0.047106437385082245,0.029199358075857162
1834762262799816,0.11280520260334015,9.668791770935059,-0.06794743984937668,-0.035499997437000275,0.04708898440003395,0.026720991358160973
1834762266799816,0.14777012169361115,9.685245513916016,-0.03063620626926422,-0.03583160787820816,0.04771730303764343,0.03675663471221924
1834762268804504,0.17165467143058777,9.710182189941406,-0.005688623525202274,-0.037088245153427124,0.04352851212024689,0.034924037754535675
1834762270806066,0.18544527888298035,9.722949028015137,0.019412187859416008,-0.03892084211111069,0.038117989897727966,0.03487167879939079
1834762272799816,0.19013792276382446,9.731586456298828,0.03614286705851555,-0.04105014353990555,0.03834488242864609,0.03724532574415207
1834762274801379,0.2029804289340973,9.735494613647461,0.06096595525741577,-0.03885103017091751,0.04056145250797272,0.03157300502061844
1834762276799816,0.20665791630744934,9.744065284729004,0.07304230332374573,-0.038327429443597794,0.04317944496870041,0.027174776419997215
1834762278813879,0.21403205394744873,9.752264022827148,0.08707232773303986,-0.04105014353990555,0.04632103815674782,0.02494075521826744
1834762280799816,0.20649510622024536,9.75348949432373,0.1235695406794548,-0.040945425629615784,0.04822344705462456,0.02410299703478813
1834762282799816,0.21298818290233612,9.75005054473877,0.14909173548221588,-0.03968878835439682,0.04738568887114525,0.02007128670811653
1834762284806066,0.21508550643920898,9.75459098815918,0.15375563502311707,-0.03544763848185539,0.04756022244691849,0.012042772024869919
1834762286804504,0.2042924463748932,9.76107406616211,0.17408718168735504,-0.03480186685919762,0.05035274848341942,0.013631021603941917
1834762288801379,0.210919588804245,9.76099681854248,0.18992723524570465,-0.037454765290021896,0.05686282739043236,0.013543754816055298
1834762290799816,0.21518127620220184,9.76530647277832,0.20715591311454773,-0.0403171069920063,0.06257005035877228,0.005410520825535059
1834762292799816,0.2305520474910736,9.758708953857422,0.22434628009796143,-0.03876376152038574,0.06819001585245132,0.006352998316287994
1834762294799816,0.22245964407920837,9.747858047485352,0.24246558547019958,-0.035587262362241745,0.07463027536869049,0.008045967668294907
1834762296799816,0.22613714635372162,9.74636459350586,0.26160961389541626,-0.03216641768813133,0.07822565734386444,0.0017104226863011718
1834762298799816,0.22253625094890594,9.74325180053711,0.25154441595077515,-0.033126350492239,0.08365362882614136,0.004171337001025677
1834762300799816,0.21260511875152588,9.73886489868164,0.24249432981014252,-0.03241076320409775,0.09000662714242935,0.0042236968874931335
1834762302807629,0.1953955888748169,9.730725288391113,0.2308010458946228,-0.025761060416698456,0.09354964643716812,-0.003804817795753479
1834762304799816,0.18311811983585358,9.72410774230957,0.23004448413848877,-0.023265238851308823,0.09625490754842758,-0.002827433403581381
1834762306799816,0.17892347276210785,9.723877906799316,0.23332931101322174,-0.02139773592352867,0.10182251036167145,0.00125663704238832
1834762308799816,0.16329412162303925,9.706323623657227,0.2262999415397644,-0.020437804982066154,0.10405652970075607,-5.410520825535059E-4
1834762310804504,0.15694472193717957,9.711140632629395,0.2378208488225937,-0.019652407616376877,0.10250318795442581,-0.0014486232539638877
1834762312799816,0.14670710265636444,9.696737289428711,0.24509921669960022,-0.017749998718500137,0.10201449692249298,0.0010471974965184927
1834762314799816,0.13610558211803436,9.69991683959961,0.25310543179512024,-0.013194689527153969,0.10325367748737335,-0.0012391837080940604
1834762316799816,0.1192120909690857,9.692906379699707,0.2434903085231781,-0.007871435023844242,0.1056971400976181,-0.006003932561725378
1834762318806066,0.11257535964250565,9.684420585632324,0.2351776361465454,-0.006352998316287994,0.10632545500993729,-0.0015533430268988013
1834762320799816,0.1028357520699501,9.681673049926758,0.21891622245311737,-0.0013962633674964309,0.10515608638525009,-0.0028623400721699
1834762322799816,0.09630436450242996,9.681462287902832,0.20774009823799133,0.0032114058267325163,0.103672556579113,-0.001745329238474369
1834762324799816,0.09198523312807083,9.669702529907227,0.2033539116382599,0.005567600484937429,0.10349802672863007,0.011990412138402462
1834762326810754,0.07717949151992798,9.647387504577637,0.18833747506141663,0.008569566532969475,0.10131636261940002,0.009110618382692337
1834762328801379,0.07070556282997131,9.649590492248535,0.1834341585636139,0.013089969754219055,0.10231120139360428,0.006143558770418167
1834762330799816,0.06709510833024979,9.644169807434082,0.17515021562576294,0.020786872133612633,0.10609856247901917,0.011833332479000092
1834762332799816,0.06139690801501274,9.639975547790527,0.16485515236854553,0.0262148454785347,0.10473720729351044,0.00783652812242508
1834762334799816,0.05702031031250954,9.62735366821289,0.16618631780147552,0.028379052877426147,0.10405652970075607,0.005497787147760391
1834762336801379,0.05999869480729103,9.62548542022705,0.143154114484787,0.02918190509080887,0.10430087894201279,0.009407324716448784
1834762338810754,0.04952166602015495,9.630226135253906,0.10779654234647751,0.03228859230875969,0.10501646250486374,0.00989601667970419
1834762340799816,0.05056554079055786,9.628368377685547,0.08821196854114532,0.03626793995499611,0.1062905490398407,0.01104793418198824
1834762342799816,0.06538085639476776,9.636260032653809,0.06585970520973206,0.03738495334982872,0.10784389078617096,0.010733774863183498
1834762344799816,0.07267838716506958,9.641517639160156,0.036075834184885025,0.03707079216837883,0.10922270268201828,0.011170106939971447
1834762346806066,0.0819966197013855,9.638806343078613,0.0017238252330571413,0.035098571330308914,0.10903071612119675,0.017086774110794067
1834762348799816,0.07929596304893494,9.638663291931152,-0.03743573650717735,0.037402406334877014,0.1074424684047699,0.014102260582149029
1834762350799816,0.08124005049467087,9.649495124816895,-0.06245993450284004,0.040369465947151184,0.1057145893573761,0.013491394929587841
1834762352799816,0.10015424340963364,9.658075332641602,-0.09985736012458801,0.04127703607082367,0.10663961619138718,0.020053833723068237
1834762354801379,0.11810117959976196,9.665908813476562,-0.15610194206237793,0.042638394981622696,0.10531316697597504,0.01473057921975851
1834762356799816,0.12445060908794403,9.669501304626465,-0.1876479536294937,0.04124213010072708,0.10344566404819489,0.0024085543118417263
1834762358809191,0.12795571982860565,9.68360710144043,-0.21559308469295502,0.038432151079177856,0.1033933013677597,0.003036872949451208
1834762360799816,0.14765521883964539,9.687504768371582,-0.24080881476402283,0.03879866749048233,0.09976302087306976,0.0018500490114092827
1834762362799816,0.16310259699821472,9.706236839294434,-0.27206751704216003,0.03808308392763138,0.0982271283864975,0.00125663704238832
1834762364799816,0.1698925495147705,9.718360900878906,-0.3098384439945221,0.03441789373755455,0.09862855821847916,0.011135200969874859
1834762366810754,0.19054014980793,9.718964576721191,-0.32785242795944214,0.03256784379482269,0.09374163299798965,0.004485496319830418
1834762368799816,0.19678422808647156,9.723389625549316,-0.33671092987060547,0.03431317210197449,0.09065239876508713,-0.00518362782895565
1834762370799816,0.21285411715507507,9.738740921020508,-0.36660975217819214,0.033405601978302,0.09117600321769714,-0.006213372107595205
1834762372799816,0.2102300524711609,9.75473403930664,-0.37317943572998047,0.02724459022283554,0.08845328539609909,-0.010943214409053326
1834762374815441,0.21591868996620178,9.766217231750488,-0.37165671586990356,0.023806290701031685,0.0855560377240181,-0.018744835630059242
1834762376799816,0.22164560854434967,9.770785331726074,-0.3749990165233612,0.018762288615107536,0.08559094369411469,-0.02272418700158596
1834762378799816,0.2204868197441101,9.763516426086426,-0.374204158782959,0.014695672318339348,0.08560840040445328,-0.0256388857960701
1834762380799816,0.20905211567878723,9.764128684997559,-0.37681859731674194,0.014713125303387642,0.08471827954053879,-0.02923426404595375
1834762382802941,0.21048863232135773,9.76489543914795,-0.3683910071849823,0.01202531810849905,0.08485791087150574,-0.03134611248970032
1834762384799816,0.20420625805854797,9.766800880432129,-0.3758705258369446,0.006475171539932489,0.08552113175392151,-0.03363249450922012
1834762386801379,0.2091287225484848,9.766092300415039,-0.3760811984539032,-8.377580670639873E-4,0.0849800780415535,-0.03539527580142021
1834762388802941,0.2091095745563507,9.768035888671875,-0.3696264326572418,-0.0075747291557490826,0.08648106455802917,-0.03839724510908127
1834762390806066,0.21705831587314606,9.752196311950684,-0.34376904368400574,-0.010105456225574017,0.09145525097846985,-0.04052654653787613
1834762392799816,0.21974940598011017,9.751439094543457,-0.31356382369995117,-0.011990412138402462,0.09278170019388199,-0.03949680179357529
1834762394799816,0.23424868285655975,9.76673412322998,-0.2951476275920868,-0.01745329238474369,0.09225810319185257,-0.0437903106212616
1834762396799816,0.2354457974433899,9.770000457763672,-0.2599528431892395,-0.019320795312523842,0.09499827027320862,-0.05345943570137024
1834762398818566,0.255346417427063,9.767882347106934,-0.2301115095615387,-0.019687313586473465,0.09728465229272842,-0.05537929758429527
1834762400799816,0.2714162766933441,9.761189460754395,-0.20565234124660492,-0.022270401939749718,0.09724974632263184,-0.058171823620796204
1834762402799816,0.29423782229423523,9.760576248168945,-0.17032350599765778,-0.023579398170113564,0.09902998059988022,-0.06407103687524796
1834762404799816,0.298106849193573,9.749753952026367,-0.15758635103702545,-0.02485348843038082,0.10353293269872665,-0.06679374724626541
1834762406801379,0.3070898652076721,9.765114784240723,-0.14889061450958252,-0.02670353837311268,0.10433578491210938,-0.06846926361322403
1834762408799816,0.3071473240852356,9.757761001586914,-0.13045525550842285,-0.027035150676965714,0.10264281183481216,-0.0717155784368515
1834762410799816,0.2942090630531311,9.749390602111816,-0.08916006982326508,-0.026912976056337357,0.10328858345746994,-0.07787659019231796
1834762412799816,0.28101223707199097,9.740646362304688,-0.08388324826955795,-0.030438542366027832,0.1056971400976181,-0.07621853053569794
1834762414813879,0.26469334959983826,9.726119041442871,-0.06313031166791916,-0.03164282068610191,0.10663961619138718,-0.07176794111728668
1834762416806066,0.241009920835495,9.723954200744629,-0.0362577885389328,-0.029862582683563232,0.10651744157075882,-0.07969173043966293
1834762418807629,0.22034317255020142,9.70650577545166,-0.025349806994199753,-0.02834414690732956,0.11033971607685089,-0.08223991096019745
1834762420799816,0.2048574686050415,9.696794509887695,-0.02272576279938221,-0.026371924206614494,0.11379546672105789,-0.07394959777593613
1834762422801379,0.19036777317523956,9.672603607177734,-0.013713987544178963,-0.024783674627542496,0.11555825173854828,-0.07871434837579727
1834762424799816,0.17376157641410828,9.665133476257324,-0.014192827045917511,-0.026965336874127388,0.11885692179203033,-0.08232717961072922
1834762426799816,0.1450120061635971,9.65433120727539,-0.0195462629199028,-0.031066861003637314,0.12201596796512604,-0.07579965144395828
1834762428802941,0.1233396902680397,9.649024963378906,-0.03575022146105766,-0.029862582683563232,0.12514010071754456,-0.08054694533348083
1834762430806066,0.10388919711112976,9.650691032409668,-0.04528871923685074,-0.025359634310007095,0.1276359260082245,-0.08566076308488846
1834762432799816,0.08619125932455063,9.630494117736816,-0.07060979306697845,-0.023055799305438995,0.12829914689064026,-0.08318239450454712
1834762434801379,0.0777253657579422,9.62877082824707,-0.08646898716688156,-0.025481807067990303,0.12833406031131744,-0.08431685715913773
1834762436799816,0.05556463077664375,9.620007514953613,-0.10795934498310089,-0.02822197414934635,0.12955579161643982,-0.0863937959074974
1834762438806066,0.04532702639698982,9.61044979095459,-0.1348605901002884,-0.0313984714448452,0.13198180496692657,-0.08655087649822235
1834762440799816,0.04540364071726799,9.604043006896973,-0.15056656301021576,-0.0351334773004055,0.13170254230499268,-0.08632398396730423
1834762442799816,0.04707000404596329,9.594179153442383,-0.15996141731739044,-0.03672172874212265,0.13096950948238373,-0.08531169593334198
1834762444799816,0.04926309734582901,9.578818321228027,-0.15846742689609528,-0.038432151079177856,0.13149310648441315,-0.08569566905498505
1834762446810754,0.04592078924179077,9.576586723327637,-0.17126204073429108,-0.039304815232753754,0.13295918703079224,-0.08349654823541641
1834762448801379,0.04820007085800171,9.551342010498047,-0.1691647171974182,-0.0391651876270771,0.132505401968956,-0.082972951233387
1834762450799816,0.026949135586619377,9.526165008544922,-0.176414355635643,-0.03907792270183563,0.13138838112354279,-0.08751080930233002
1834762452799816,0.025886109098792076,9.510612487792969,-0.19575950503349304,-0.03933972120285034,0.13199925422668457,-0.08501498401165009
1834762454806066,0.03537672385573387,9.492971420288086,-0.18488024175167084,-0.03947934880852699,0.13171999156475067,-0.0780511274933815
1834762456801379,0.03206314891576767,9.487627983093262,-0.16937540471553802,-0.04014257341623306,0.13158036768436432,-0.07721336930990219
1834762458810754,0.0351947620511055,9.477255821228027,-0.16721104085445404,-0.040770892053842545,0.13240067660808563,-0.07827802002429962
1834762460799816,0.041620802134275436,9.459826469421387,-0.16628208756446838,-0.040509093552827835,0.13402383029460907,-0.07672467082738876
1834762462807629,0.05521029233932495,9.433212280273438,-0.17017985880374908,-0.042760565876960754,0.13484413921833038,-0.07621853053569794
1834762464799816,0.04977066442370415,9.423606872558594,-0.16073712706565857,-0.044802602380514145,0.13587388396263123,-0.07656759768724442
1834762466799816,0.04924394190311432,9.411980628967285,-0.1585536152124405,-0.044052109122276306,0.13699088990688324,-0.07735299319028854
1834762468801379,0.04964616894721985,9.388487815856934,-0.15217545628547668,-0.043964844197034836,0.13905037939548492,-0.07684684544801712
1834762470806066,0.04093126952648163,9.37916088104248,-0.14385321736335754,-0.04602433368563652,0.14161601662635803,-0.0777893215417862
1834762472799816,0.03270479664206505,9.367984771728516,-0.15292245149612427,-0.04797910153865814,0.14440853893756866,-0.08126252889633179
1834762474801379,0.021499931812286377,9.357565879821777,-0.16160860657691956,-0.04986405745148659,0.14852751791477203,-0.07735299319028854
1834762476799816,0.007824251428246498,9.35653018951416,-0.15912821888923645,-0.05532693862915039,0.1515294909477234,-0.06815510988235474
1834762478807629,0.004108449909836054,9.346054077148438,-0.16147452592849731,-0.057508599013090134,0.15126769244670868,-0.07005751878023148
1834762480799816,-0.004031835589557886,9.334944725036621,-0.15067189931869507,-0.056810468435287476,0.15201817452907562,-0.07103490084409714
1834762482799816,-0.016050728037953377,9.31711196899414,-0.14504073560237885,-0.057962384074926376,0.15599752962589264,-0.0691324919462204
1834762484799816,-0.04095042496919632,9.286620140075684,-0.15127523243427277,-0.05944591388106346,0.15892967581748962,-0.07415904104709625
1834762486799816,-0.05215528979897499,9.292691230773926,-0.12366530299186707,-0.0601964071393013,0.16252505779266357,-0.07072073966264725
1834762488804504,-0.060534995049238205,9.27940845489502,-0.08117301017045975,-0.0578925721347332,0.16495107114315033,-0.06747443228960037
1834762490799816,-0.06226839870214462,9.284283638000488,-0.03680367022752762,-0.05281366407871246,0.16769123077392578,-0.07211700081825256
1834762492799816,-0.061789557337760925,9.293524742126465,-0.015418658964335918,-0.04663519561290741,0.17088519036769867,-0.06698573380708694
1834762494799816,-0.07509174197912216,9.275548934936523,0.004060565959662199,-0.04288274049758911,0.17071065306663513,-0.05808455869555473
1834762496799816,-0.09366117417812347,9.234397888183594,-0.00883939303457737,-0.04038691893219948,0.16941910982131958,-0.05714207887649536
1834762498799816,-0.12285128235816956,9.222599029541016,-0.049722783267498016,-0.03520328924059868,0.1690700501203537,-0.05546656250953674
1834762500799816,-0.1324663907289505,9.217254638671875,-0.04791276529431343,-0.031066861003637314,0.1670803725719452,-0.05160938575863838
1834762502801379,-0.15219460427761078,9.22189998626709,-0.05815037339925766,-0.027471482753753662,0.16488125920295715,-0.04756022244691849
1834762504799816,-0.17307205498218536,9.203522682189941,-0.0634942278265953,-0.023841196671128273,0.16194909811019897,-0.044889867305755615
1834762506799816,-0.19313547015190125,9.196637153625488,-0.07679641991853714,-0.019285887479782104,0.15716689825057983,-0.046530477702617645
1834762508802941,-0.23093512654304504,9.173738479614258,-0.1221713274717331,-0.013072515837848186,0.15683528780937195,-0.039269909262657166
1834762510806066,-0.24055981636047363,9.16159439086914,-0.15120820701122284,-0.009616764262318611,0.15575318038463593,-0.03256784379482269
1834762512799816,-0.24968650937080383,9.153406143188477,-0.15820884704589844,-0.00753982225432992,0.15102334320545197,-0.03396410867571831
1834762514806066,-0.2703724205493927,9.146951675415039,-0.16836026310920715,-0.0013962633674964309,0.1483006328344345,-0.027174776419997215
1834762516799816,-0.2817975580692291,9.141291618347168,-0.19947531819343567,0.004712388850748539,0.1460142433643341,-0.015934856608510017
1834762518806066,-0.2967756688594818,9.134003639221191,-0.2623278796672821,0.011135200969874859,0.14276793599128723,-0.011100294068455696
1834762520799816,-0.3069845139980316,9.129779815673828,-0.27386796474456787,0.01679006777703762,0.1417032778263092,-0.008325220085680485
1834762524799816,-0.2982313632965088,9.119341850280762,-0.3395552635192871,0.024155355989933014,0.13863150775432587,0.0019024088978767395
1834762526799816,-0.29120197892189026,9.12313461303711,-0.38038119673728943,0.0285186804831028,0.1348092257976532,0.006370451766997576
1834762522807629,-0.3130275011062622,9.137327194213867,-0.3005680739879608,0.019687313586473465,0.1408655196428299,-0.0021293016616255045
1834762528799816,-0.2800162732601166,9.135354042053223,-0.4377175271511078,0.0322536826133728,0.1307600736618042,0.01014036312699318
1834762530802941,-0.267853707075119,9.150773048400879,-0.5068716406822205,0.03504621237516403,0.12838642299175262,0.012967796064913273
1834762532799816,-0.26917532086372375,9.159584045410156,-0.559745192527771,0.037664204835891724,0.12388347089290619,0.014695672318339348
1834762534799816,-0.2691369950771332,9.155542373657227,-0.6140457391738892,0.039304815232753754,0.11950269341468811,0.014695672318339348
1834762536799816,-0.2719334363937378,9.167733192443848,-0.6798479557037354,0.03923500329256058,0.11367329210042953,0.02068215236067772
1834762538804504,-0.2584780156612396,9.199020385742188,-0.7179253101348877,0.03562216833233833,0.10709340125322342,0.0285186804831028
1834762540799816,-0.25033771991729736,9.214353561401367,-0.7543459534645081,0.03047344833612442,0.10346312075853348,0.033719759434461594
1834762542799816,-0.2254859209060669,9.236456871032715,-0.7831721305847168,0.02754129469394684,0.09920451790094376,0.036966074258089066
1834762544799816,-0.21485567092895508,9.262744903564453,-0.8048635721206665,0.028152160346508026,0.09704030305147171,0.04071853309869766
1834762546799816,-0.20122785866260529,9.284896850585938,-0.8188552856445312,0.02905973233282566,0.096220001578331,0.04651302471756935
1834762548801379,-0.1698734015226364,9.293007850646973,-0.8433910608291626,0.027436574921011925,0.0910189226269722,0.04468042775988579
1834762550799816,-0.1530948281288147,9.315282821655273,-0.864986777305603,0.02480112947523594,0.08656833320856094,0.04164355620741844
1834762552799816,-0.12528377771377563,9.338325500488281,-0.8682620525360107,0.019565140828490257,0.08580038696527481,0.04459316283464432
1834762554801379,-0.08223603665828705,9.366135597229004,-0.8631767630577087,0.018099064007401466,0.08450884371995926,0.04101523756980896
1834762556799816,-0.06418376415967941,9.39627456665039,-0.8636555671691895,0.020053833723068237,0.0832522064447403,0.03258529677987099
1834762558807629,-0.03143107891082764,9.425359725952148,-0.871929943561554,0.018343409523367882,0.08021533489227295,0.03188716620206833
1834762560806066,-0.0038211459759622812,9.441170692443848,-0.8647378087043762,0.012688543647527695,0.0777718722820282,0.031241392716765404
1834762562801379,0.004089296329766512,9.478214263916016,-0.8542799353599548,0.007400196045637131,0.07682939618825912,0.029705503955483437
1834762564799816,0.023568522185087204,9.511042594909668,-0.8586181402206421,0.0044156829826533794,0.07993607968091965,0.03251548483967781
1834762566799816,0.028644230216741562,9.517450332641602,-0.8666052222251892,0.0019896754529327154,0.08211774379014969,0.025272367522120476
1834762568799816,0.034533966332674026,9.530417442321777,-0.8682524561882019,-0.0025307273026555777,0.08173377066850662,0.019477874040603638
1834762570799816,0.04269340634346008,9.555603981018066,-0.8930755853652954,-0.009023352526128292,0.08274605870246887,0.0216071754693985
1834762572799816,0.04087381064891815,9.581316947937012,-0.9021639227867126,-0.011746065691113472,0.08415977656841278,0.01581268385052681
1834762574799816,0.031699229031801224,9.598967552185059,-0.9122387170791626,-0.013718287460505962,0.08637634664773941,0.006562437862157822
1834762576799816,0.027284322306513786,9.631586074829102,-0.9265369176864624,-0.02042035199701786,0.08779006451368332,0.0021642083302140236
1834762578807629,0.02647029235959053,9.651946067810059,-0.9582935571670532,-0.02773328125476837,0.09061749279499054,8.028514566831291E-4
1834762580799816,0.01168370433151722,9.667518615722656,-0.9874070882797241,-0.031171580776572227,0.09145525097846985,-0.004956734832376242
1834762582802941,-0.004108449909836054,9.673609733581543,-1.0122014284133911,-0.035011306405067444,0.08950048685073853,-0.008796459063887596
1834762584799816,-0.010400412604212761,9.694822311401367,-1.0356262922286987,-0.04115486517548561,0.08969247341156006,-0.012566370889544487
1834762586799816,-0.032091882079839706,9.709580421447754,-1.0619912147521973,-0.04907865822315216,0.08859290927648544,-0.02316051907837391
1834762588804504,-0.048161763697862625,9.730457305908203,-1.1245086193084717,-0.05492551252245903,0.08862782269716263,-0.02857103943824768
1834762590799816,-0.059366628527641296,9.740877151489258,-1.1733695268630981,-0.05700245499610901,0.09105382859706879,-0.03431317210197449
1834762592799816,-0.0725155770778656,9.754792213439941,-1.2149615287780762,-0.06405358016490936,0.089884452521801,-0.0423416867852211
1834762594799816,-0.09316317737102509,9.760173797607422,-1.2681894302368164,-0.0763232484459877,0.08569566905498505,-0.04581489413976669
1834762596799816,-0.11659762263298035,9.784929275512695,-1.3200191259384155,-0.08768533915281296,0.08115781098604202,-0.049096111208200455
1834762598817004,-0.1588888019323349,9.789536476135254,-1.3819524049758911,-0.09826203435659409,0.07764969766139984,-0.05466371029615402
1834762600799816,-0.1854357123374939,9.796642303466797,-1.418708086013794,-0.10604620724916458,0.07675957679748535,-0.06108652427792549
1834762602799816,-0.20564277470111847,9.804180145263672,-1.4510202407836914,-0.11480775475502014,0.07421139627695084,-0.06586872786283493
1834762604799816,-0.24270501732826233,9.804494857788086,-1.4955236911773682,-0.12765337526798248,0.06782349199056625,-0.0677013248205185
1834762606799816,-0.2752278447151184,9.79148006439209,-1.5253362655639648,-0.13810789585113525,0.061278510838747025,-0.07133160531520844
1834762608799816,-0.2897462844848633,9.78565788269043,-1.535344123840332,-0.14641566574573517,0.05612978711724281,-0.07798130810260773
1834762610806066,-0.32172322273254395,9.770525932312012,-1.5420573949813843,-0.15604989230632782,0.05052728205919266,-0.07925540208816528
1834762612801379,-0.33552342653274536,9.757750511169434,-1.5416264533996582,-0.1693492978811264,0.04495968297123909,-0.07962191849946976
1834762614812316,-0.35623806715011597,9.755194664001465,-1.5232102870941162,-0.18181094527244568,0.042725659906864166,-0.08400269597768784
1834762616799816,-0.36228102445602417,9.729289054870605,-1.4891456365585327,-0.19565141201019287,0.03890338912606239,-0.08262388408184052
1834762618799816,-0.3534703552722931,9.728255271911621,-1.4591126441955566,-0.20870646834373474,0.033056534826755524,-0.08463101834058762
1834762620799816,-0.3550218343734741,9.715699195861816,-1.416007399559021,-0.21954496204853058,0.029478611424565315,-0.09283406287431717
1834762622802941,-0.3509133458137512,9.716187477111816,-1.3115724325180054,-0.229859858751297,0.026145031675696373,-0.08862782269716263
1834762624807629,-0.3413844406604767,9.717537879943848,-1.2394111156463623,-0.23661428689956665,0.021764256060123444,-0.08859290927648544
1834762626806066,-0.31999942660331726,9.722086906433105,-1.1733503341674805,-0.2451489418745041,0.01682497374713421,-0.09965830296278
1834762628799816,-0.30199503898620605,9.725065231323242,-1.0675075054168701,-0.25310763716697693,0.01401499379426241,-0.09810495376586914
1834762630799816,-0.28626033663749695,9.731884002685547,-0.962200939655304,-0.2586403489112854,0.013473941944539547,-0.09670869261026382
1834762632799816,-0.2816826105117798,9.735724449157715,-0.842921793460846,-0.2617644667625427,0.012304571457207203,-0.10259045660495758
1834762634802941,-0.2717418968677521,9.751124382019043,-0.7661349773406982,-0.2663547098636627,0.009320057928562164,-0.09958848357200623
1834762636799816,-0.2595985233783722,9.756956100463867,-0.6709223389625549,-0.2713986933231354,0.0077841682359576225,-0.09686577320098877
1834762638806066,-0.24701456725597382,9.759675979614258,-0.5475826263427734,-0.271259069442749,0.007609635591506958,-0.10026916861534119
1834762640799816,-0.2406555712223053,9.765364646911621,-0.44748586416244507,-0.27029913663864136,0.006928957067430019,-0.10381218045949936
1834762642799816,-0.2261754423379898,9.761974334716797,-0.3603943884372711,-0.2659183740615845,0.010471975430846214,-0.10590657591819763
1834762644799816,-0.21356278657913208,9.75663948059082,-0.2521956264972687,-0.2591813802719116,0.01377064734697342,-0.10787880420684814
1834762646801379,-0.19978177547454834,9.764244079589844,-0.1918138563632965,-0.2572440803050995,0.014852751977741718,-0.11007791757583618
1834762648799816,-0.1946869045495987,9.765824317932129,-0.12705549597740173,-0.25476571917533875,0.01630137488245964,-0.11299261450767517
1834762650802941,-0.17938315868377686,9.74068546295166,-0.03760812059044838,-0.24961699545383453,0.020036378875374794,-0.1183856800198555
1834762652799816,-0.1751214861869812,9.726550102233887,0.010821791365742683,-0.2433861643075943,0.027035150676965714,-0.12262683361768723
1834762654802941,-0.17929698526859283,9.714186668395996,0.056081779301166534,-0.23661428689956665,0.03569198399782181,-0.12568116188049316
1834762656799816,-0.1816432923078537,9.679479598999023,0.11234551668167114,-0.2301740199327469,0.04340633749961853,-0.1284387856721878
1834762658807629,-0.1969183087348938,9.662031173706055,0.14817234873771667,-0.22628194093704224,0.048520151525735855,-0.1304459124803543
1834762660799816,-0.2124231606721878,9.648192405700684,0.1592239886522293,-0.22280873358249664,0.05532693862915039,-0.13325588405132294
1834762662799816,-0.2652488052845001,9.611254692077637,0.1652669459581375,-0.21535617113113403,0.06419321149587631,-0.13500121235847473
1834762664799816,-0.2997923493385315,9.583491325378418,0.15252022445201874,-0.20615829527378082,0.07290240377187729,-0.13528047502040863
1834762666807629,-0.3317980468273163,9.546304702758789,0.12637554109096527,-0.1972745656967163,0.08033750206232071,-0.1351233869791031
1834762668810754,-0.3674812316894531,9.523894309997559,0.06612785160541534,-0.19364428520202637,0.08742354065179825,-0.1356469839811325
1834762670818566,-0.4034996032714844,9.506542205810547,0.023491907864809036,-0.19090411067008972,0.09552186727523804,-0.13531537353992462
1834762672817004,-0.45727336406707764,9.493230819702148,-0.03609498590230942,-0.18470819294452667,0.10234610736370087,-0.1345474272966385
1834762674799816,-0.4848354160785675,9.484103202819824,-0.08632533997297287,-0.179751455783844,0.10643018037080765,-0.13414600491523743
1834762676799816,-0.5229032039642334,9.47440242767334,-0.1175457239151001,-0.17332865297794342,0.11210250109434128,-0.13515830039978027
1834762678807629,-0.5707201957702637,9.458322525024414,-0.16773778200149536,-0.16856390237808228,0.11798425763845444,-0.13295918703079224
1834762680799816,-0.5866751670837402,9.465217590332031,-0.19531896710395813,-0.1682322919368744,0.11828096210956573,-0.13004447519779205
1834762682799816,-0.623814046382904,9.472428321838379,-0.23412419855594635,-0.16955873370170593,0.11904890835285187,-0.13035863637924194
1834762684799816,-0.647727370262146,9.467084884643555,-0.27240267395973206,-0.16484634578227997,0.12002629041671753,-0.12482594698667526
1834762686806066,-0.6573519706726074,9.46463394165039,-0.2981738746166229,-0.156154602766037,0.11992157250642776,-0.12260937690734863
1834762688799816,-0.6708362102508545,9.472161293029785,-0.3196259140968323,-0.1529257446527481,0.11986920982599258,-0.12388347089290619
1834762690799816,-0.6666415333747864,9.453045845031738,-0.33914345502853394,-0.1494700014591217,0.11775736510753632,-0.12032299488782883
1834762692799816,-0.665597677230835,9.443784713745117,-0.3497450053691864,-0.14383257925510406,0.11396999657154083,-0.11552334576845169
1834762694799816,-0.6684515476226807,9.430129051208496,-0.3482605814933777,-0.13915510475635529,0.10936233401298523,-0.11098548769950867
1834762696799816,-0.6707020998001099,9.41601276397705,-0.3377644121646881,-0.1313709318637848,0.10520844906568527,-0.11135200411081314
1834762698802941,-0.6746286153793335,9.41018009185791,-0.3289633095264435,-0.12411036342382431,0.10307914763689041,-0.11006046086549759
1834762700804504,-0.6798000335693359,9.390115737915039,-0.3219052255153656,-0.11892673373222351,0.1014036312699318,-0.10400416702032089
1834762704799816,-0.6921254396438599,9.343381881713867,-0.31348717212677,-0.10423105955123901,0.09922196716070175,-0.10056587308645248
1834762702799816,-0.6857663989067078,9.365983009338379,-0.3134010136127472,-0.10997319221496582,0.0999550074338913,-0.10389944911003113
1834762706799816,-0.707936704158783,9.328460693359375,-0.3225085437297821,-0.09859365224838257,0.09854128956794739,-0.09346237778663635
1834762708799816,-0.7239874005317688,9.325109481811523,-0.3515166938304901,-0.08824384957551956,0.09848892688751221,-0.09854128956794739
1834762710806066,-0.7316297888755798,9.30896282196045,-0.36513492465019226,-0.08386307209730148,0.09667378664016724,-0.09723228961229324
1834762712799816,-0.7494043111801147,9.288564682006836,-0.3847481906414032,-0.08162904530763626,0.09424778074026108,-0.08487536013126373
1834762714799816,-0.7421833276748657,9.270167350769043,-0.4066024720668793,-0.07539822161197662,0.09300859272480011,-0.08937831223011017
1834762716799816,-0.7528231739997864,9.261739730834961,-0.42849504947662354,-0.07103490084409714,0.09208357334136963,-0.10124655067920685
1834762718809191,-0.7583394050598145,9.24758529663086,-0.4613052010536194,-0.06579891592264175,0.09580112248659134,-0.0956091359257698
1834762720801379,-0.7730590105056763,9.250438690185547,-0.49430689215660095,-0.06284930557012558,0.09829694032669067,-0.09035569429397583
1834762722801379,-0.7801937460899353,9.231169700622559,-0.5189288258552551,-0.06253514438867569,0.09717993438243866,-0.09306095540523529
1834762726799816,-0.7986865043640137,9.204326629638672,-0.5901707410812378,-0.05342452973127365,0.09857619553804398,-0.08309512585401535
1834762724801379,-0.7873380184173584,9.219802856445312,-0.5641984343528748,-0.058485984802246094,0.09869837015867233,-0.08845328539609909
1834762728799816,-0.8235191702842712,9.191100120544434,-0.6164973974227905,-0.05323254317045212,0.09552186727523804,-0.080075703561306
1834762730799816,-0.8267178535461426,9.170395851135254,-0.6361872553825378,-0.052551861852407455,0.09604547172784805,-0.07583455741405487
1834762732799816,-0.840757429599762,9.151204109191895,-0.6574478149414062,-0.05159193277359009,0.09513789415359497,-0.06948155909776688
1834762734799816,-0.8603802919387817,9.143380165100098,-0.6954102516174316,-0.051714107394218445,0.09196139872074127,-0.06295402348041534
1834762736799816,-0.880692720413208,9.112800598144531,-0.7470866441726685,-0.04876450076699257,0.09124581515789032,-0.060528017580509186
1834762738809191,-0.9034280180931091,9.10078239440918,-0.7794084548950195,-0.0463733971118927,0.08819148689508438,-0.061679936945438385
1834762740802941,-0.9065309166908264,9.11135482788086,-0.8076695799827576,-0.045151665806770325,0.08422958850860596,-0.053878314793109894
1834762742801379,-0.9132155776023865,9.112408638000488,-0.8196693062782288,-0.04602433368563652,0.08011060953140259,-0.049008846282958984
1834762744799816,-0.917707085609436,9.104430198669434,-0.823432981967926,-0.04647811874747276,0.07742280513048172,-0.042638394981622696
1834762746799816,-0.9214324951171875,9.111248970031738,-0.8481699228286743,-0.047909289598464966,0.07665485888719559,-0.026808258146047592
1834762748799816,-0.9411128163337708,9.131294250488281,-0.8547778725624084,-0.04742059484124184,0.07265805453062057,-0.026825711131095886
1834762750799816,-0.9542809128761292,9.126591682434082,-0.8649389147758484,-0.045692719519138336,0.0691324919462204,-0.023841196671128273
1834762752806066,-0.9563590884208679,9.14314079284668,-0.857947826385498,-0.04300491139292717,0.06342526525259018,-0.007941247895359993
1834762754799816,-0.9459011554718018,9.15376091003418,-0.8612039089202881,-0.038641590625047684,0.05333726108074188,-0.007923794910311699
1834762756799816,-0.9380194544792175,9.163787841796875,-0.8491275906562805,-0.036128316074609756,0.0455007329583168,-0.016912240535020828
1834762758801379,-0.9357498288154602,9.163375854492188,-0.8035036325454712,-0.032131511718034744,0.0406138114631176,-0.007400196045637131
1834762760799816,-0.9217772483825684,9.170299530029297,-0.7546140551567078,-0.02830924093723297,0.035726889967918396,0.001029744278639555
1834762762799816,-0.9029109477996826,9.173001289367676,-0.7049774527549744,-0.024870941415429115,0.03202679008245468,-0.002146754879504442
1834762764799816,-0.8798020482063293,9.181869506835938,-0.6453235745429993,-0.0213104709982872,0.026860617101192474,0.005201081279665232
1834762766799816,-0.8584266304969788,9.193532943725586,-0.6053691506385803,-0.01860520988702774,0.019722219556570053,0.014643312431871891
1834762768809191,-0.8342260718345642,9.210503578186035,-0.5731335878372192,-0.01302015595138073,0.016685348004102707,0.01825614459812641
1834762770799816,-0.8002858757972717,9.232683181762695,-0.5513463616371155,-0.005689773242920637,0.013648474588990211,0.024294983595609665
1834762772799816,-0.7717182636260986,9.249940872192383,-0.5267243385314941,-7.504915702156723E-4,0.010000736452639103,0.03185226023197174
1834762774799816,-0.750907838344574,9.264019012451172,-0.5172337889671326,0.003543018363416195,0.0063355453312397,0.03960151970386505
1834762776801379,-0.7113268971443176,9.296407699584961,-0.503328263759613,0.009040805511176586,0.002373647876083851,0.03817034885287285
1834762778806066,-0.6910815238952637,9.306645393371582,-0.5062204003334045,0.01572541706264019,0.00125663704238832,0.032934363931417465
1834762780799816,-0.6532626748085022,9.329333305358887,-0.5198960900306702,0.021240657195448875,-0.0013962633674964309,0.03267256170511246
1834762784799816,-0.6284587979316711,9.373884201049805,-0.5318766832351685,0.03148574009537697,-0.010070549324154854,0.039043016731739044
1834762782799816,-0.6301730275154114,9.357468605041504,-0.5292621850967407,0.025848325341939926,-0.006352998316287994,0.03193952515721321
1834762786801379,-0.6146203279495239,9.385997772216797,-0.5501492023468018,0.03735004737973213,-0.012566370889544487,0.04986405745148659
1834762788802941,-0.6015384197235107,9.413963317871094,-0.5556463003158569,0.04124213010072708,-0.014433872886002064,0.05057964101433754
1834762790806066,-0.5797703266143799,9.438182830810547,-0.5501396656036377,0.04712389037013054,-0.01539380382746458,0.043161991983652115
1834762792799816,-0.5637291073799133,9.454702377319336,-0.5425547957420349,0.04682718217372894,-0.015568336471915245,0.04597197100520134
1834762794799816,-0.551078200340271,9.475502967834473,-0.5325566530227661,0.043964844197034836,-0.019565140828490257,0.04890412464737892
1834762796799816,-0.5519401431083679,9.481517791748047,-0.5229798555374146,0.047019168734550476,-0.02338741160929203,0.040194932371377945
1834762798801379,-0.5418270230293274,9.494312286376953,-0.5224243998527527,0.051260318607091904,-0.021450096741318703,0.04265584796667099
1834762800799816,-0.5410129427909851,9.494483947753906,-0.5252304077148438,0.05251695588231087,-0.019565140828490257,0.04482005536556244
1834762802799816,-0.5340985059738159,9.497501373291016,-0.5139009952545166,0.05106833204627037,-0.02010619267821312,0.038117989897727966
1834762804799816,-0.5293579697608948,9.496448516845703,-0.5227020978927612,0.05302310362458229,-0.018273597583174706,0.040997784584760666
1834762806799816,-0.532566249370575,9.504281044006348,-0.5325949788093567,0.0573166124522686,-0.017645278945565224,0.04127703607082367
1834762808799816,-0.5379292368888855,9.518569946289062,-0.5426697134971619,0.060702551156282425,-0.018221236765384674,0.03661700710654259
1834762810799816,-0.5268871784210205,9.529775619506836,-0.5624746084213257,0.0570373609662056,-0.019722219556570053,0.039933133870363235
1834762812799816,-0.5338016152381897,9.528387069702148,-0.572827160358429,0.05696754530072212,-0.020176006481051445,0.04253367334604263
1834762816799816,-0.5510016083717346,9.545759201049805,-0.6012702584266663,0.0627969428896904,-0.019163714721798897,0.04043927788734436
1834762814799816,-0.5471230149269104,9.539945602416992,-0.5845587253570557,0.062029000371694565,-0.01891936920583248,0.039357174187898636
1834762818812316,-0.5668895244598389,9.546008110046387,-0.6091998219490051,0.06469935178756714,-0.021694442257285118,0.04487241432070732
1834762820799816,-0.5851907730102539,9.522746086120605,-0.6333141922950745,0.07105235010385513,-0.026284659281373024,0.04445353522896767
1834762822799816,-0.6111630797386169,9.518531799316406,-0.6476890444755554,0.07548549026250839,-0.03251548483967781,0.043022364377975464
1834762824799816,-0.6402957439422607,9.518341064453125,-0.6453139781951904,0.07716100662946701,-0.04017747938632965,0.047106437385082245
1834762826801379,-0.6584150195121765,9.518991470336914,-0.6461088061332703,0.08220500499010086,-0.04797910153865814,0.050963614135980606
1834762828799816,-0.690727174282074,9.53164291381836,-0.6623128056526184,0.08656833320856094,-0.05735151842236519,0.047542769461870193
1834762830806066,-0.7266114950180054,9.52808952331543,-0.6646495461463928,0.0866905003786087,-0.06841690838336945,0.050597093999385834
1834762832799816,-0.7662211060523987,9.542158126831055,-0.7028035521507263,0.09154251962900162,-0.07853981852531433,0.060842178761959076
1834762836799816,-0.8200811147689819,9.537809371948242,-0.7410341501235962,0.10492919385433197,-0.10154325515031815,0.05743878707289696
1834762834799816,-0.787922203540802,9.537647247314453,-0.7245907783508301,0.10002481937408447,-0.09060004353523254,0.06157521530985832
1834762838799816,-0.8436304926872253,9.52365493774414,-0.7539341449737549,0.10833258926868439,-0.11220721900463104,0.061941735446453094
1834762840799816,-0.8487923741340637,9.500967979431152,-0.793764054775238,0.11037462204694748,-0.12541936337947845,0.06691592186689377
1834762842799816,-0.8382866382598877,9.491774559020996,-0.8029960989952087,0.10901326686143875,-0.13575170934200287,0.0688532367348671
1834762844799816,-0.8322915434837341,9.487580299377441,-0.8273019790649414,0.10951940715312958,-0.1449146866798401,0.0737401619553566
1834762846807629,-0.8156087398529053,9.485616683959961,-0.8391389846801758,0.11037462204694748,-0.1534842550754547,0.0783303752541542
1834762848799816,-0.7972691655158997,9.478577613830566,-0.8469631671905518,0.11140436679124832,-0.1578475832939148,0.08217009902000427
1834762850799816,-0.7863708138465881,9.483768463134766,-0.8662509322166443,0.11192796379327774,-0.1615651249885559,0.08471827954053879
1834762852799816,-0.7613369822502136,9.485079765319824,-0.8719395399093628,0.11009536683559418,-0.1664520502090454,0.08930850028991699
1834762854799816,-0.7323288321495056,9.50142765045166,-0.8687313199043274,0.10976375639438629,-0.17074556648731232,0.09644689410924911
1834762856799816,-0.7006679177284241,9.527112007141113,-0.8676491379737854,0.10751228034496307,-0.17563247680664062,0.09768607467412949
1834762858815441,-0.6801927089691162,9.555728912353516,-0.8676299452781677,0.10604620724916458,-0.18140952289104462,0.09412560611963272
1834762860799816,-0.6505812406539917,9.581795692443848,-0.8567219972610474,0.10620328783988953,-0.18795450031757355,0.09110618382692337
1834762862799816,-0.6241683959960938,9.607682228088379,-0.8731653690338135,0.10538297891616821,-0.19249236583709717,0.08747590333223343
1834762864799816,-0.5840128064155579,9.627870559692383,-0.8670457601547241,0.1013687252998352,-0.19420278072357178,0.08981464058160782
1834762866802941,-0.5455811023712158,9.654245376586914,-0.8607633709907532,0.09363691508769989,-0.2019520401954651,0.0988030880689621
1834762868799816,-0.514063835144043,9.674806594848633,-0.8437454104423523,0.09089674800634384,-0.20561723411083221,0.09379399567842484
1834762870806066,-0.4839830994606018,9.706236839294434,-0.8275031447410583,0.08888962119817734,-0.2044827789068222,0.09004153311252594
1834762872799816,-0.4582502245903015,9.743069648742676,-0.8154458999633789,0.08189085125923157,-0.21259856224060059,0.096220001578331
1834762874799816,-0.4452832043170929,9.764981269836426,-0.7939077019691467,0.07981390506029129,-0.21882937848567963,0.0843866690993309
1834762876799816,-0.4215039908885956,9.77791976928711,-0.7739208936691284,0.08025024086236954,-0.21930061280727386,0.06428047269582748
1834762878807629,-0.3988644480705261,9.783186912536621,-0.7625340819358826,0.07478735595941544,-0.21895155310630798,0.06241297349333763
1834762880799816,-0.3726431131362915,9.801498413085938,-0.738879382610321,0.06660176068544388,-0.21875956654548645,0.05996951460838318
1834762882799816,-0.3537672460079193,9.811418533325195,-0.7082910537719727,0.06065019220113754,-0.21896900236606598,0.04614650458097458
1834762884799816,-0.3270096480846405,9.82260513305664,-0.6625426411628723,0.054017938673496246,-0.21697932481765747,0.04419173672795296
1834762886806066,-0.29970619082450867,9.831779479980469,-0.6072365641593933,0.04822344705462456,-0.21357594430446625,0.04260348528623581
1834762888799816,-0.2900623083114624,9.833724021911621,-0.5441254377365112,0.042586032301187515,-0.2076418250799179,0.03309144079685211
1834762890799816,-0.29646921157836914,9.824252128601074,-0.464810311794281,0.03701843321323395,-0.19861847162246704,0.028850292786955833
1834762892799816,-0.293893039226532,9.820487976074219,-0.40822097659111023,0.03207915276288986,-0.19282397627830505,0.02520255371928215
1834762894799816,-0.2980206608772278,9.821340560913086,-0.343951016664505,0.025080380961298943,-0.18598228693008423,0.019739674404263496
1834762896799816,-0.3135925233364105,9.819818496704102,-0.2709566056728363,0.021799162030220032,-0.17589427530765533,0.013962633907794952
1834762898810754,-0.335025429725647,9.806726455688477,-0.21603360772132874,0.020437804982066154,-0.1653699427843094,0.007417649496346712
1834762900806066,-0.35783737897872925,9.789335250854492,-0.13877750933170319,0.01944296807050705,-0.1558055430650711,1.9198621157556772E-4
1834762902801379,-0.39742791652679443,9.775583267211914,-0.08562622964382172,0.018325956538319588,-0.14674727618694305,-0.00945968460291624
1834762904799816,-0.4276140034198761,9.76432991027832,-0.047453079372644424,0.018675023689866066,-0.13643239438533783,-0.006597344763576984
1834762906802941,-0.4672715365886688,9.75583553314209,-0.013302184641361237,0.01944296807050705,-0.12489575892686844,0.007714355364441872
1834762908806066,-0.5010872483253479,9.734345436096191,0.01317768543958664,0.020437804982066154,-0.11660544574260712,6.457717972807586E-4
1834762910799816,-0.5407352447509766,9.725198745727539,0.025895684957504272,0.023631757125258446,-0.10819295793771744,-0.002949606394395232
1834762912799816,-0.5932736396789551,9.720966339111328,0.016357185319066048,0.02525491453707218,-0.09702285379171371,0.010786134749650955
1834762914799816,-0.6270222663879395,9.717001914978027,0.03325067088007927,0.024294983595609665,-0.09251990169286728,0.006108652334660292
1834762916799816,-0.6598802804946899,9.712164878845215,0.03844130411744118,0.024696409702301025,-0.09173450618982315,-0.0052534411661326885
1834762918807629,-0.7028610110282898,9.689324378967285,0.028280310332775116,0.027000242844223976,-0.08742354065179825,-0.0023561944253742695
1834762920799816,-0.7320128083229065,9.704445838928223,0.046265553683042526,0.030281461775302887,-0.08105309307575226,0.005078908056020737
1834762922799816,-0.7604750990867615,9.70344066619873,0.0491769015789032,0.036739181727170944,-0.07658504694700241,0.00769690191373229
1834762924799816,-0.7820228934288025,9.718544006347656,0.03751235082745552,0.04092797264456749,-0.07581710070371628,0.011414453387260437
1834762926799816,-0.8061085939407349,9.718658447265625,0.02346317656338215,0.04127703607082367,-0.07782422751188278,0.018709929659962654
1834762928799816,-0.8286906480789185,9.725390434265137,-0.004022258799523115,0.04473278671503067,-0.07974409312009811,0.028117254376411438
1834762930799816,-0.8399050831794739,9.733503341674805,-0.01656787469983101,0.05368632823228836,-0.08192575722932816,0.028413960710167885
1834762932799816,-0.848217785358429,9.744850158691406,-0.028289886191487312,0.06485643237829208,-0.08422958850860596,0.027960173785686493
1834762934810754,-0.8758851885795593,9.760279655456543,-0.04841075837612152,0.07353071868419647,-0.08780751377344131,0.03792600333690643
1834762936802941,-0.8824740052223206,9.785523414611816,-0.06248866394162178,0.07974409312009811,-0.09442231059074402,0.04150392860174179
1834762938801379,-0.8915432691574097,9.790177345275879,-0.05251920595765114,0.08501498401165009,-0.1010894700884819,0.03972369432449341
1834762940799816,-0.8976532816886902,9.812664031982422,-0.03301125392317772,0.0918915867805481,-0.1059763953089714,0.04841543361544609
1834762942799816,-0.9026139974594116,9.807109832763672,-0.013570335693657398,0.1013861745595932,-0.11056660860776901,0.057334065437316895
1834762944799816,-0.8988311886787415,9.81274127960205,0.0010342950699850917,0.10712830722332001,-0.11499974131584167,0.06487388908863068
1834762946806066,-0.9151884317398071,9.821121215820312,0.015753846615552902,0.1094495952129364,-0.11906635761260986,0.07799876481294632
1834762948799816,-0.9377321600914001,9.821101188659668,0.010333375073969364,0.11334168165922165,-0.1241278126835823,0.08319984376430511
1834762950799816,-0.9530263543128967,9.828255653381348,8.14028549939394E-4,0.12159708887338638,-0.12880529463291168,0.08794713765382767
1834762952799816,-0.9542521834373474,9.817461967468262,-0.0037732617929577827,0.13121385872364044,-0.13267992436885834,0.09724974632263184
1834762954801379,-0.9532945156097412,9.817376136779785,-0.01223915908485651,0.13400638103485107,-0.13346533477306366,0.10559242218732834
1834762956799816,-0.943909227848053,9.823773384094238,-0.041199423372745514,0.1339365690946579,-0.13086478412151337,0.11643091589212418
1834762958801379,-0.9375981688499451,9.838943481445312,-0.06936481595039368,0.135402649641037,-0.13313370943069458,0.12674580514431
1834762960799816,-0.912822961807251,9.865317344665527,-0.08386410027742386,0.14034192264080048,-0.1390852928161621,0.13470451533794403
1834762962799816,-0.8924530744552612,9.908614158630371,-0.09573933482170105,0.14645057916641235,-0.14241886138916016,0.14414674043655396
1834762964799816,-0.8816217184066772,9.97415828704834,-0.10130345821380615,0.1486671417951584,-0.1483180820941925,0.15074408054351807
1834762966804504,-0.8731557726860046,10.02202320098877,-0.12864524126052856,0.15248940885066986,-0.15491542220115662,0.15502014756202698
1834762968799816,-0.859470546245575,10.065913200378418,-0.16125427186489105,0.1607273668050766,-0.16067500412464142,0.16348499059677124
1834762970801379,-0.844109296798706,10.102707862854004,-0.18714037537574768,0.16941910982131958,-0.16840681433677673,0.1710946261882782
1834762972799816,-0.8339387774467468,10.125499725341797,-0.21796812117099762,0.17235125601291656,-0.17922785878181458,0.179768905043602
1834762974801379,-0.8275318741798401,10.14826488494873,-0.2667427957057953,0.17264796793460846,-0.19284142553806305,0.18957766890525818
1834762976806066,-0.8007455468177795,10.194664001464844,-0.3416142761707306,0.17549285292625427,-0.20486675202846527,0.19277161359786987
1834762978801379,-0.7631757259368896,10.23216724395752,-0.4012394845485687,0.18053685128688812,-0.2151816487312317,0.19261454045772552
1834762980799816,-0.729484498500824,10.27403736114502,-0.47098737955093384,0.18311993777751923,-0.22254693508148193,0.19851374626159668
1834762982799816,-0.6878445148468018,10.318875312805176,-0.5171476006507874,0.1823170930147171,-0.2280796319246292,0.203330859541893
1834762984799816,-0.6572371125221252,10.374698638916016,-0.5614402890205383,0.17952457070350647,-0.23120376467704773,0.20847958326339722
1834762986806066,-0.6340612173080444,10.418608665466309,-0.6314371824264526,0.17660987377166748,-0.2316051870584488,0.21649064123630524
1834762990799816,-0.6046987175941467,10.5000581741333,-0.7144680619239807,0.17058847844600677,-0.23958134651184082,0.20114919543266296
1834762988799816,-0.6271084547042847,10.450977325439453,-0.6704244017601013,0.17360790073871613,-0.23509584367275238,0.21188296377658844
1834762992799816,-0.596539318561554,10.563094139099121,-0.7662402987480164,0.16395622491836548,-0.23977333307266235,0.20436060428619385
1834762996799816,-0.5922585129737854,10.616809844970703,-0.8834700584411621,0.1486147791147232,-0.24036674201488495,0.1946914792060852
1834762998804504,-0.5766099691390991,10.67609977722168,-0.991122841835022,0.13629275560379028,-0.23567180335521698,0.19659388065338135
1834762994799816,-0.6004753708839417,10.582908630371094,-0.8255207538604736,0.15519466996192932,-0.24015730619430542,0.2051110863685608
1834763000799816,-0.5581075549125671,10.721330642700195,-1.0645579099655151,0.12281882017850876,-0.22848105430603027,0.19723965227603912
1834763002799816,-0.5286588668823242,10.758565902709961,-1.1621646881103516,0.10815805196762085,-0.22333233058452606,0.18860027194023132
1834763004799816,-0.5005509853363037,10.797504425048828,-1.2532784938812256,0.09049531817436218,-0.21589723229408264,0.18329447507858276
1834763006806066,-0.4934641122817993,10.835946083068848,-1.3315688371658325,0.07251843065023422,-0.209125354886055,0.17699383199214935
1834763008813879,-0.48932692408561707,10.894766807556152,-1.4366647005081177,0.0561646968126297,-0.20717057585716248,0.17378243803977966
1834763010806066,-0.48588886857032776,10.949603080749512,-1.5036927461624146,0.0397411473095417,-0.2070658653974533,0.16585864126682281
1834763012799816,-0.48844587802886963,11.001701354980469,-1.5418946743011475,0.0205948855727911,-0.20341812074184418,0.15702727437019348
1834763014799816,-0.48453855514526367,11.054986953735352,-1.574216365814209,9.4247778179124E-4,-0.19797269999980927,0.15491542220115662
1834763016799816,-0.4779784381389618,11.111824989318848,-1.598704218864441,-0.021642083302140236,-0.19849629700183868,0.14306463301181793
1834763018809191,-0.46944549679756165,11.129063606262207,-1.6240156888961792,-0.04483750835061073,-0.20174260437488556,0.12623965740203857
1834763020807629,-0.4836095869541168,11.134302139282227,-1.6565672159194946,-0.062343161553144455,-0.202213853597641,0.11826351284980774
1834763022813879,-0.4998135268688202,11.128805160522461,-1.6769946813583374,-0.07965682446956635,-0.20184732973575592,0.11178833991289139
1834763024801379,-0.5264562368392944,11.119132995605469,-1.6793409585952759,-0.10464993864297867,-0.20376719534397125,0.10520844906568527
1834763026802941,-0.5712277889251709,11.096435546875,-1.6876153945922852,-0.13267992436885834,-0.20383700728416443,0.10094984620809555
1834763028801379,-0.5985025763511658,11.055830001831055,-1.6986286640167236,-0.15833626687526703,-0.20088739693164825,0.09339256584644318
1834763030802941,-0.6221476793289185,11.024609565734863,-1.708483099937439,-0.18339920043945312,-0.1972745656967163,0.08564330637454987
1834763032801379,-0.6508014798164368,10.979291915893555,-1.7009366750717163,-0.21204005181789398,-0.19544197618961334,0.08140215277671814
1834763034799816,-0.6635194420814514,10.938753128051758,-1.6905649900436401,-0.24012239277362823,-0.1927018016576767,0.07803367078304291
1834763036799816,-0.6694188117980957,10.899890899658203,-1.6676093339920044,-0.27000242471694946,-0.18832102417945862,0.07302457839250565
1834763038817004,-0.686063289642334,10.872634887695312,-1.5937721729278564,-0.2999173700809479,-0.18338175117969513,0.0734609067440033
1834763040801379,-0.6964254379272461,10.8510103225708,-1.5180388689041138,-0.32564353942871094,-0.17697638273239136,0.0745953693985939
1834763042801379,-0.6937151551246643,10.829290390014648,-1.4251629114151,-0.3516314923763275,-0.16952383518218994,0.07276277989149094
1834763044799816,-0.7083293199539185,10.772452354431152,-1.2512671947479248,-0.3744603991508484,-0.1633104532957077,0.07454301416873932
1834763046806066,-0.7117865681648254,10.742151260375977,-1.1163876056671143,-0.39449676871299744,-0.1604655683040619,0.07784168422222137
1834763048799816,-0.7113747596740723,10.71872615814209,-0.9109362959861755,-0.4133812189102173,-0.16050048172473907,0.08580038696527481
1834763050801379,-0.7063756585121155,10.711322784423828,-0.755782425403595,-0.42929863929748535,-0.15962781012058258,0.09196139872074127
1834763052801379,-0.682270884513855,10.697282791137695,-0.5895578265190125,-0.44280749559402466,-0.1552819460630417,0.10259045660495758
1834763054801379,-0.6598132252693176,10.68361759185791,-0.4222797155380249,-0.45298275351524353,-0.1500808596611023,0.1226966455578804
1834763056799816,-0.6234884262084961,10.649734497070312,-0.20112250745296478,-0.4590564966201782,-0.1489114910364151,0.12543681263923645
1834763060799816,-0.5250293016433716,10.628301620483398,0.22518904507160187,-0.4593706429004669,-0.13643239438533783,0.1462934911251068
1834763062806066,-0.4841267466545105,10.619070053100586,0.38040032982826233,-0.45813146233558655,-0.13357004523277283,0.14765486121177673
1834763064799816,-0.4317799210548401,10.612184524536133,0.5370194911956787,-0.44970154762268066,-0.12552407383918762,0.15044738352298737
1834763058802941,-0.5832945704460144,10.637418746948242,-0.016596606001257896,-0.46006879210472107,-0.1420348882675171,0.12833406031131744
1834763066801379,-0.38455668091773987,10.593317031860352,0.7270903587341309,-0.4421093463897705,-0.11784463375806808,0.16924457252025604
1834763070799816,-0.2963159680366516,10.569385528564453,0.9677746295928955,-0.4230503439903259,-0.10665707290172577,0.1682148277759552
1834763068799816,-0.34533965587615967,10.582524299621582,0.8625351190567017,-0.4334525167942047,-0.11121238023042679,0.1725257933139801
1834763072799816,-0.250759094953537,10.549656867980957,1.090903639793396,-0.4159468710422516,-0.09892526268959045,0.18128734827041626
1834763074807629,-0.22372378408908844,10.523655891418457,1.1576827764511108,-0.4018445909023285,-0.09140289574861526,0.19216075539588928
1834763078817004,-0.14660176634788513,10.509712219238281,1.245253086090088,-0.37021923065185547,-0.07974409312009811,0.2045002281665802
1834763076799816,-0.1987091600894928,10.516770362854004,1.2014870643615723,-0.3844611346721649,-0.08606218546628952,0.19319050014019012
1834763080799816,-0.12148179858922958,10.503276824951172,1.263324499130249,-0.35876989364624023,-0.07682939618825912,0.22045253217220306
1834763082801379,-0.0936037078499794,10.498334884643555,1.2564003467559814,-0.34693655371665955,-0.07504915446043015,0.23308871686458588
1834763084799816,-0.06223009154200554,10.48662281036377,1.2392195463180542,-0.33431780338287354,-0.06874851882457733,0.2428102046251297
1834763086806066,-0.04299028217792511,10.49588394165039,1.1995716094970703,-0.32100096344947815,-0.06283185631036758,0.25045475363731384
1834763088801379,-0.006713341921567917,10.505814552307129,1.139716625213623,-0.3067241609096527,-0.05832890421152115,0.26035076379776
1834763090810754,0.02606806717813015,10.519777297973633,1.069777250289917,-0.2946639358997345,-0.05513495206832886,0.2686934471130371
1834763094806066,0.09176496416330338,10.542847633361816,0.9413043260574341,-0.2805616855621338,-0.051626838743686676,0.2926742732524872
1834763092799816,0.057834334671497345,10.535033226013184,1.0151702165603638,-0.28670522570610046,-0.05380849912762642,0.27803096175193787
1834763096799816,0.1336730718612671,10.556112289428711,0.8675820827484131,-0.27323129773139954,-0.05262167751789093,0.29534462094306946
1834763098806066,0.14885230362415314,10.574633598327637,0.7944248914718628,-0.2626197040081024,-0.05581562966108322,0.29340729117393494
1834763100799816,0.1973971426486969,10.605633735656738,0.7440220713615417,-0.2560048997402191,-0.05834635719656944,0.30141836404800415
1834763102799816,0.2319885641336441,10.622623443603516,0.7020278573036194,-0.25532421469688416,-0.06143558770418167,0.3090803623199463
1834763104799816,0.2782062292098999,10.639229774475098,0.6347028613090515,-0.2519906461238861,-0.0645073652267456,0.31328660249710083
1834763106799816,0.3261573314666748,10.67090892791748,0.5998241305351257,-0.24849997460842133,-0.06997025012969971,0.31693434715270996
1834763110801379,0.41412025690078735,10.709829330444336,0.5486265420913696,-0.23451988399028778,-0.07927285134792328,0.31960469484329224
1834763108799816,0.37002864480018616,10.68116569519043,0.5789945721626282,-0.2422167956829071,-0.07454301416873932,0.3196919560432434
1834763112799816,0.48772764205932617,10.747925758361816,0.5047647953033447,-0.23179717361927032,-0.08618436008691788,0.3180513381958008
1834763114813879,0.5250675678253174,10.774415016174316,0.4757278859615326,-0.2301216572523117,-0.09328784793615341,0.3154682517051697
1834763116799816,0.5576382875442505,10.819704055786133,0.45191991329193115,-0.2286555916070938,-0.10170033574104309,0.3111572861671448
1834763118801379,0.6202036142349243,10.85930347442627,0.41995254158973694,-0.2261248528957367,-0.10929251462221146,0.30745720863342285
1834763120799816,0.6499108076095581,10.883313179016113,0.40320274233818054,-0.22333233058452606,-0.11225957423448563,0.30227357149124146
1834763122799816,0.6880361437797546,10.90025520324707,0.3914807140827179,-0.22369885444641113,-0.11767009645700455,0.2957460284233093
1834763124799816,0.7302698493003845,10.924503326416016,0.3874967694282532,-0.22748620808124542,-0.1264141947031021,0.2912081778049469
1834763126806066,0.7537617087364197,10.92810344696045,0.3850259482860565,-0.2324080467224121,-0.13116149604320526,0.2868099510669708
1834763128809191,0.7753861546516418,10.957265853881836,0.398883581161499,-0.23432789742946625,-0.13747958838939667,0.2782752811908722
1834763130807629,0.8066352605819702,10.978448867797852,0.40291541814804077,-0.23469442129135132,-0.14669492840766907,0.27122417092323303
1834763132799816,0.8415427207946777,10.998225212097168,0.42758527398109436,-0.23698081076145172,-0.1534842550754547,0.26373669505119324
1834763134806066,0.8769290447235107,11.025222778320312,0.47213655710220337,-0.2387435883283615,-0.1581442803144455,0.2506467401981354
1834763136799816,0.9051039814949036,11.027836799621582,0.5087391138076782,-0.2402445673942566,-0.1662077009677887,0.24486969411373138
1834763138806066,0.9361328482627869,11.023967742919922,0.5604826211929321,-0.2437003254890442,-0.17692402005195618,0.2431243658065796
1834763140799816,0.985702395439148,11.026362419128418,0.6531094908714294,-0.24726079404354095,-0.18476055562496185,0.22874285280704498
1834763142799816,1.0066468715667725,11.01874828338623,0.7285556197166443,-0.2502802014350891,-0.19235274195671082,0.21783454716205597
1834763144799816,1.0360859632492065,11.003406524658203,0.8233659863471985,-0.2512226998806,-0.2025279998779297,0.21406462788581848
1834763152799816,1.227325201034546,10.878936767578125,1.4695801734924316,-0.2373647838830948,-0.24275784194469452,0.17065829038619995
1834763146813879,1.0940830707550049,10.968881607055664,0.9813737273216248,-0.24959953129291534,-0.2142915278673172,0.2010619342327118
1834763154799816,1.2759466171264648,10.864849090576172,1.6459178924560547,-0.22994713485240936,-0.249477356672287,0.1612684279680252
1834763150801379,1.159866213798523,10.910367012023926,1.2597044706344604,-0.24247859418392181,-0.23251275718212128,0.182631254196167
1834763148802941,1.1273912191390991,10.935630798339844,1.1131601333618164,-0.24607397615909576,-0.22357667982578278,0.19024088978767395
1834763156799816,1.3498796224594116,10.844766616821289,1.8246115446090698,-0.22019073367118835,-0.2537883222103119,0.15227997303009033
1834763158801379,1.4231421947479248,10.815183639526367,2.044858932495117,-0.20982348918914795,-0.26078709959983826,0.14351841807365417
1834763160806066,1.4870195388793945,10.776004791259766,2.2011237144470215,-0.1970476657152176,-0.2670528292655945,0.13185963034629822
1834763162813879,1.5391844511032104,10.733598709106445,2.3579916954040527,-0.1794547587633133,-0.27173030376434326,0.11543607711791992
1834763164799816,1.6149752140045166,10.688425064086914,2.578402042388916,-0.16208872199058533,-0.2777167856693268,0.11065387725830078
1834763166806066,1.6644107103347778,10.661322593688965,2.731171131134033,-0.14276793599128723,-0.2825688123703003,0.1103222593665123
1834763168809191,1.7200040817260742,10.643394470214844,2.9408745765686035,-0.12243484705686569,-0.28682741522789,0.09726719558238983
1834763170806066,1.7552658319473267,10.631921768188477,3.0965936183929443,-0.10278243571519852,-0.287508100271225,0.08431685715913773
1834763174799816,1.8588294982910156,10.625725746154785,3.4084715843200684,-0.05279621109366417,-0.28907889127731323,0.0656592845916748
1834763172799816,1.800995111465454,10.630897521972656,3.2426302433013916,-0.07958701252937317,-0.28815385699272156,0.07653268426656723
1834763176799816,1.8827331066131592,10.623034477233887,3.4904682636260986,-0.027139870449900627,-0.2877524197101593,0.0544368177652359
1834763178801379,1.9061006307601929,10.583118438720703,3.5495765209198,-0.003298672381788492,-0.28618162870407104,0.04392993822693825
1834763180799816,1.9402897357940674,10.53906536102295,3.6430747509002686,0.022026054561138153,-0.28119000792503357,0.03047344833612442
1834763182799816,1.9526151418685913,10.508161544799805,3.6832878589630127,0.04991641640663147,-0.27354544401168823,0.018832102417945862
1834763184799816,1.958054780960083,10.479162216186523,3.716097831726074,0.07340855151414871,-0.2699500620365143,0.01021017599850893
1834763186807629,1.941908359527588,10.43319320678711,3.74204158782959,0.09316567331552505,-0.2675240635871887,1.0471975838299841E-4
1834763188801379,1.9177173376083374,10.390519142150879,3.720781087875366,0.11822859942913055,-0.2629862129688263,-0.010105456225574017
1834763190802941,1.8949627876281738,10.358973503112793,3.6843411922454834,0.14416418969631195,-0.25588271021842957,-0.024905849248170853
1834763192799816,1.863014578819275,10.323223114013672,3.6270337104797363,0.1690700501203537,-0.2453758418560028,-0.030054569244384766
1834763194802941,1.8399056196212769,10.303753852844238,3.554412603378296,0.18776251375675201,-0.23883084952831268,-0.03626793995499611
1834763196799816,1.8017325401306152,10.273261070251465,3.4733927249908447,0.20387190580368042,-0.23338542878627777,-0.0550127774477005
1834763198801379,1.7700046300888062,10.243314743041992,3.33032488822937,0.2246587872505188,-0.22341959178447723,-0.0627794936299324
1834763200799816,1.7479203939437866,10.214008331298828,3.2074642181396484,0.24303710460662842,-0.2165604531764984,-0.06642723083496094
1834763202802941,1.7366963624954224,10.175768852233887,3.07393479347229,0.25480061769485474,-0.20975366234779358,-0.07098253816366196
1834763204799816,1.708310842514038,10.131485939025879,2.8713278770446777,0.2634923458099365,-0.20029398798942566,-0.07630579173564911
1834763206806066,1.6766499280929565,10.0897216796875,2.7248313426971436,0.2733185589313507,-0.19397589564323425,-0.08859290927648544
1834763208810754,1.6493942737579346,10.048694610595703,2.524628162384033,0.27982863783836365,-0.1892635077238083,-0.09695304185152054
1834763210809191,1.6269749402999878,10.011747360229492,2.3673291206359863,0.2828305959701538,-0.18446384370326996,-0.106011301279068
1834763212799816,1.6129257678985596,9.96335506439209,2.2234857082366943,0.2885727286338806,-0.17722073197364807,-0.11601203680038452
1834763214807629,1.58859121799469,9.928265571594238,2.048067092895508,0.2929884195327759,-0.17203710973262787,-0.11992157250642776
1834763216799816,1.5609428882598877,9.88720989227295,1.8899540901184082,0.2892359495162964,-0.17090263962745667,-0.13028882443904877
1834763218806066,1.540094256401062,9.854562759399414,1.7285561561584473,0.2843315899372101,-0.16941910982131958,-0.1448797732591629
1834763220799816,1.5207107067108154,9.795062065124512,1.5352866649627686,0.28304004669189453,-0.16896532475948334,-0.1546885371208191
1834763222799816,1.5019688606262207,9.744879722595215,1.4073692560195923,0.2790781557559967,-0.16812756657600403,-0.16060519218444824
1834763224799816,1.4705473184585571,9.70463752746582,1.2745198011398315,0.2713637948036194,-0.17039649188518524,-0.16811011731624603
1834763226806066,1.4441155195236206,9.649551391601562,1.1153532266616821,0.26145032048225403,-0.1745503842830658,-0.17671458423137665
1834763228801379,1.4312154054641724,9.609406471252441,0.9810864329338074,0.2539977729320526,-0.1742711216211319,-0.18441148102283478
1834763230799816,1.3957812786102295,9.56481647491455,0.8688175082206726,0.24661502242088318,-0.17263051867485046,-0.19312068819999695
1834763232799816,1.3421894311904907,9.510467529296875,0.7241119146347046,0.23745204508304596,-0.17299702763557434,-0.20235347747802734
1834763234801379,1.2973413467407227,9.461454391479492,0.6044210195541382,0.22619466483592987,-0.17587682604789734,-0.21123719215393066
1834763236799816,1.266628384590149,9.408790588378906,0.504860520362854,0.2108706831932068,-0.1791405975818634,-0.21877701580524445
1834763238815441,1.217949628829956,9.35879135131836,0.3782742917537689,0.1961750090122223,-0.1825963407754898,-0.22441443800926208
1834763240799816,1.1774014234542847,9.308771133422852,0.2819124758243561,0.18359118700027466,-0.18647097051143646,-0.23177972435951233
1834763242799816,1.131815791130066,9.258081436157227,0.21064186096191406,0.1696809083223343,-0.19142770767211914,-0.24062854051589966
1834763244799816,1.0665497779846191,9.200745582580566,0.09957963228225708,0.152105450630188,-0.1978505253791809,-0.24602161347866058
1834763246806066,1.0218164920806885,9.159899711608887,0.029103916138410568,0.13357004523277283,-0.20352284610271454,-0.2514844834804535
1834763248809191,0.948237955570221,9.099652290344238,-0.07277415692806244,0.11454595625400543,-0.20760691165924072,-0.2563539743423462
1834763250799816,0.8930467963218689,9.042957305908203,-0.12020807713270187,0.0976511687040329,-0.21088813245296478,-0.262131005525589
1834763252799816,0.8396177887916565,9.003568649291992,-0.1789330542087555,0.0797615498304367,-0.2122669368982315,-0.2647838890552521
1834763254809191,0.7843596339225769,8.935821533203125,-0.2553942799568176,0.05686282739043236,-0.21385519206523895,-0.2604380249977112
1834763256799816,0.7322713732719421,8.879059791564941,-0.30389124155044556,0.03560471534729004,-0.21856757998466492,-0.2630211114883423
1834763258809191,0.6854791045188904,8.830572128295898,-0.32287245988845825,0.014887658879160881,-0.22127284109592438,-0.27092745900154114
1834763260804504,0.6287748217582703,8.758363723754883,-0.35131558775901794,-0.007033676840364933,-0.2232450693845749,-0.2689552307128906
1834763262806066,0.5915306210517883,8.69845962524414,-0.3582012951374054,-0.026912976056337357,-0.2263517528772354,-0.2673495411872864
1834763264799816,0.5472761988639832,8.648334503173828,-0.3625779151916504,-0.045727625489234924,-0.225828155875206,-0.27403414249420166
1834763266806066,0.4910220205783844,8.57649040222168,-0.36285561323165894,-0.06759659945964813,-0.22647392749786377,-0.2684490978717804
1834763268802941,0.4477827548980713,8.532331466674805,-0.36279815435409546,-0.08651597052812576,-0.22619466483592987,-0.264399915933609
1834763270801379,0.4107588231563568,8.477906227111816,-0.3507601320743561,-0.10276498645544052,-0.22575834393501282,-0.27371999621391296
1834763272799816,0.35696589946746826,8.428930282592773,-0.3493331968784332,-0.12541936337947845,-0.2261248528957367,-0.2649933397769928
1834763274799816,0.29961997270584106,8.39497184753418,-0.33846351504325867,-0.14624114334583282,-0.2281145304441452,-0.2566506564617157
1834763276807629,0.23802195489406586,8.345602989196777,-0.3148183524608612,-0.1676563322544098,-0.2330189049243927,-0.2568950057029724
1834763278801379,0.2019173949956894,8.316287994384766,-0.28030356764793396,-0.18305012583732605,-0.23462460935115814,-0.2462310492992401
1834763280799816,0.1553453803062439,8.29630184173584,-0.253842830657959,-0.1935919225215912,-0.23424063622951508,-0.23659683763980865
1834763282799816,0.10872548818588257,8.26527214050293,-0.21156123280525208,-0.20975366234779358,-0.23404864966869354,-0.22659610211849213
1834763284799816,0.06619488447904587,8.246521949768066,-0.16471150517463684,-0.22846360504627228,-0.23364722728729248,-0.21970205008983612
1834763286806066,0.0612628310918808,8.231485366821289,-0.12554235756397247,-0.24909338355064392,-0.2307499796152115,-0.2182883322238922
1834763288812316,0.05561251938343048,8.237327575683594,-0.0825808048248291,-0.2655867636203766,-0.2283763289451599,-0.2076941728591919
1834763290810754,0.07130890339612961,8.254537582397461,-0.04045243188738823,-0.2775946259498596,-0.22626447677612305,-0.19898498058319092
1834763292799816,0.10229945182800293,8.269744873046875,0.0012449849164113402,-0.2920983135700226,-0.2194925993680954,-0.1981472223997116
1834763294801379,0.15968367457389832,8.294548988342285,0.08032067865133286,-0.3093770742416382,-0.2079559862613678,-0.19083429872989655
1834763296799816,0.20241539180278778,8.284570693969727,0.11452902853488922,-0.32356658577919006,-0.1978854238986969,-0.18620917201042175
1834763298809191,0.24406492710113525,8.267637252807617,0.1457015424966812,-0.33859387040138245,-0.18945549428462982,-0.18503980338573456
1834763300806066,0.28026527166366577,8.234923362731934,0.1874372512102127,-0.3537433445453644,-0.18036232888698578,-0.17905332148075104
1834763302807629,0.29184359312057495,8.20972728729248,0.24368184804916382,-0.3635520935058594,-0.16913986206054688,-0.1751088798046112
1834763304799816,0.28163474798202515,8.199365615844727,0.3192811608314514,-0.37215656042099,-0.15833626687526703,-0.17460273206233978
1834763306806066,0.2579895853996277,8.203607559204102,0.41845858097076416,-0.3837280869483948,-0.1486322432756424,-0.16774359345436096
1834763308799816,0.21785318851470947,8.206997871398926,0.482776403427124,-0.3935193717479706,-0.14159856736660004,-0.16425293684005737
1834763310799816,0.19049225747585297,8.218470573425293,0.5454757809638977,-0.4006054103374481,-0.13320352137088776,-0.1681624799966812
1834763312799816,0.13691003620624542,8.223872184753418,0.5909559726715088,-0.40421825647354126,-0.12325514853000641,-0.16116370260715485
1834763314799816,0.09637140482664108,8.246587753295898,0.6171581149101257,-0.4069409668445587,-0.11876965314149857,-0.15341444313526154
1834763316799816,0.04352658987045288,8.258559226989746,0.634731650352478,-0.41313689947128296,-0.11529645323753357,-0.14885912835597992
1834763318799816,0.018061857670545578,8.276142120361328,0.6590567231178284,-0.4207814335823059,-0.11112511157989502,-0.13695599138736725
1834763320799816,-0.009318233467638493,8.278459548950195,0.6768695712089539,-0.41928043961524963,-0.10480701923370361,-0.13358749449253082
1834763322799816,-0.017381904646754265,8.290325164794922,0.6903824210166931,-0.41463786363601685,-0.10068804770708084,-0.13486158847808838
1834763324799816,-0.037167586386203766,8.269161224365234,0.7004380226135254,-0.4179539978504181,-0.09889035671949387,-0.1244245246052742
1834763326806066,-0.058217406272888184,8.260857582092285,0.7191606760025024,-0.4199436604976654,-0.09496336430311203,-0.10981611907482147
1834763328799816,-0.06939353793859482,8.258827209472656,0.715406596660614,-0.42125266790390015,-0.08997172117233276,-0.10238101333379745
1834763330799816,-0.08723513036966324,8.263528823852539,0.7377110123634338,-0.42671555280685425,-0.08714429289102554,-0.09438740462064743
1834763334807629,-0.11218271404504776,8.255341529846191,0.841925859451294,-0.42791983485221863,-0.08089601248502731,-0.07906341552734375
1834763332799816,-0.09889967739582062,8.259411811828613,0.7820324897766113,-0.4295080602169037,-0.08539895713329315,-0.08522442728281021
1834763338804504,-0.13667060434818268,8.2887544631958,0.8947418928146362,-0.4231027066707611,-0.07307693362236023,-0.05988224595785141
1834763336799816,-0.12837709486484528,8.265953063964844,0.866825520992279,-0.4259301424026489,-0.07592181861400604,-0.07052875310182571
1834763340799816,-0.13595235347747803,8.31140422821045,0.9262304902076721,-0.4237659275531769,-0.07194247096776962,-0.048171088099479675
1834763342799816,-0.1283196359872818,8.327752113342285,0.9460161328315735,-0.42441171407699585,-0.07016223669052124,-0.039217546582221985
1834763344799816,-0.11980585753917694,8.336495399475098,0.9596534967422485,-0.4214271903038025,-0.06745697557926178,-0.03405137360095978
1834763346799816,-0.09663955867290497,8.34333324432373,0.9778494238853455,-0.41571998596191406,-0.06428047269582748,-0.024521876126527786
1834763348802941,-0.08860461413860321,8.35207748413086,0.9888914823532104,-0.4113217294216156,-0.06384414434432983,-0.01457349956035614
1834763350801379,-0.08039729297161102,8.366279602050781,1.0060818195343018,-0.40997785329818726,-0.06723008304834366,-0.007714355364441872
1834763352799816,-0.08519527316093445,8.369009017944336,1.017430305480957,-0.40479421615600586,-0.06925466656684875,2.617993741296232E-4
1834763354806066,-0.0918319970369339,8.378375053405762,1.025723934173584,-0.39735910296440125,-0.06848672032356262,0.008831365965306759
1834763356799816,-0.09174580872058868,8.386831283569336,1.0282330513000488,-0.38547343015670776,-0.07019714266061783,0.020385446026921272
1834763358799816,-0.1006043553352356,8.377799987792969,1.0348888635635376,-0.37552502751350403,-0.07585200667381287,0.029862582683563232
1834763360799816,-0.1088978722691536,8.36733341217041,1.0492541790008545,-0.36627480387687683,-0.08114035427570343,0.034697145223617554
1834763362799816,-0.10644620656967163,8.3667573928833,1.0747953653335571,-0.35465091466903687,-0.08892452716827393,0.04075343906879425
1834763366806066,-0.13561715185642242,8.366499900817871,1.1504234075546265,-0.324247270822525,-0.09672614932060242,0.07204718887805939
1834763364799816,-0.12060073018074036,8.35701847076416,1.1194233894348145,-0.3430444598197937,-0.09409070014953613,0.05492551252245903
1834763368812316,-0.15861107409000397,8.354910850524902,1.1721723079681396,-0.3089756369590759,-0.1019621342420578,0.08285077661275864
1834763370807629,-0.15694472193717957,8.365829467773438,1.1834347248077393,-0.2940181791782379,-0.10852457582950592,0.09136798232793808
1834763372799816,-0.16179057955741882,8.362141609191895,1.2048101425170898,-0.277088463306427,-0.116361103951931,0.10259045660495758
1834763374802941,-0.16334201395511627,8.370827674865723,1.2091964483261108,-0.26307347416877747,-0.12575097382068634,0.11698941886425018
1834763376799816,-0.15033671259880066,8.381122589111328,1.201515793800354,-0.24605651199817657,-0.1359262466430664,0.12522737681865692
1834763378806066,-0.11665508151054382,8.397279739379883,1.1960761547088623,-0.22748620808124542,-0.14590951800346375,0.1276359260082245
1834763380799816,-0.056407392024993896,8.42221736907959,1.178464412689209,-0.20755454897880554,-0.15278612077236176,0.1417381912469864
1834763382799816,-0.025435999035835266,8.446887969970703,1.1474450826644897,-0.19198621809482574,-0.15809191763401031,0.15461872518062592
1834763384799816,0.031124621629714966,8.475224494934082,1.1281286478042603,-0.18017034232616425,-0.16528268158435822,0.1566956639289856
1834763386806066,0.1054597944021225,8.516596794128418,1.088729739189148,-0.16365952789783478,-0.16985544562339783,0.16673129796981812
1834763388801379,0.15702132880687714,8.543603897094727,1.0792008638381958,-0.14625859260559082,-0.17517869174480438,0.17664477229118347
1834763390799816,0.21760420501232147,8.559385299682617,1.0488231182098389,-0.129608154296875,-0.17879152297973633,0.1757022887468338
1834763392799816,0.2872084379196167,8.577888488769531,1.018263578414917,-0.12142255902290344,-0.17762215435504913,0.18420204520225525
1834763394801379,0.34504279494285583,8.595059394836426,0.993708610534668,-0.11424925178289413,-0.17374752461910248,0.18884462118148804
1834763396799816,0.3835415244102478,8.614232063293457,0.9700634479522705,-0.10100220143795013,-0.17057102918624878,0.18282324075698853
1834763398799816,0.45147940516471863,8.645194053649902,0.9188467264175415,-0.09126326441764832,-0.16774359345436096,0.1872389167547226
1834763400799816,0.5016714334487915,8.676002502441406,0.8809225559234619,-0.08480554819107056,-0.1627170443534851,0.1897871047258377
1834763404799816,0.632050096988678,8.72676944732666,0.7495670914649963,-0.07621853053569794,-0.14681710302829742,0.1869247555732727
1834763402799816,0.5808141827583313,8.699188232421875,0.8110119104385376,-0.07911577820777893,-0.15475834906101227,0.1886875480413437
1834763408799816,0.7504385709762573,8.768322944641113,0.5897684693336487,-0.07023204863071442,-0.12943361699581146,0.1805892139673233
1834763410810754,0.7826549410820007,8.786547660827637,0.5255560278892517,-0.06630505621433258,-0.12161453813314438,0.17502161860466003
1834763406817004,0.685105562210083,8.752119064331055,0.678909420967102,-0.07443828880786896,-0.13946926593780518,0.18093828856945038
1834763412799816,0.8170548677444458,8.810968399047852,0.44566628336906433,-0.06550220400094986,-0.11613421142101288,0.16048301756381989
1834763414799816,0.8609166145324707,8.836577415466309,0.3676440417766571,-0.06688101589679718,-0.10976375639438629,0.15519466996192932
1834763416799816,0.892395555973053,8.85303020477295,0.2802077829837799,-0.06489133834838867,-0.10260790586471558,0.1494874507188797
1834763418799816,0.9254451394081116,8.886433601379395,0.18952500820159912,-0.06387905031442642,-0.09716247767210007,0.13819517195224762
1834763420799816,0.9648537039756775,8.92867660522461,0.09036675095558167,-0.06995279341936111,-0.09290387481451035,0.1342332661151886
1834763422799816,1.0006039142608643,8.962492942810059,0.03213018923997879,-0.0763406977057457,-0.09192649275064468,0.12803734838962555
1834763424799816,1.0334811210632324,8.996461868286133,-0.01877054199576378,-0.07929030805826187,-0.09142034500837326,0.11138691008090973
1834763426806066,1.0828783512115479,9.0292329788208,-0.07058106362819672,-0.08319984376430511,-0.08787732571363449,0.10049606114625931
1834763428799816,1.12056303024292,9.053951263427734,-0.08864292502403259,-0.0866905003786087,-0.08485791087150574,0.0904604122042656
1834763430799816,1.166196584701538,9.070059776306152,-0.1005852073431015,-0.09026842564344406,-0.08243189752101898,0.07246606796979904
1834763432799816,1.1909621953964233,9.068977355957031,-0.13240893185138702,-0.09358455240726471,-0.08059930801391602,0.061802107840776443
1834763434799816,1.2095890045166016,9.081523895263672,-0.15115074813365936,-0.09646435081958771,-0.08056439459323883,0.05307546257972717
1834763438804504,1.236902117729187,9.059381484985352,-0.2063801884651184,-0.10623819380998611,-0.08084364980459213,0.027401668950915337
1834763436807629,1.2253715991973877,9.069743156433105,-0.17521725594997406,-0.10273008048534393,-0.08234463632106781,0.04082325100898743
1834763440799816,1.2551459074020386,9.060118675231934,-0.23187364637851715,-0.10861183702945709,-0.07829546928405762,0.013962633907794952
1834763442799816,1.2618687152862549,9.07687759399414,-0.2538619935512543,-0.11252138018608093,-0.07819075137376785,0.003525565145537257
1834763444799816,1.2662166357040405,9.086588859558105,-0.26923274993896484,-0.11899654567241669,-0.07932521402835846,-0.011658798903226852
1834763446806066,1.2735525369644165,9.096108436584473,-0.2878500819206238,-0.12740904092788696,-0.08171631395816803,-0.030490901321172714
1834763448810754,1.267777681350708,9.098444938659668,-0.2827456295490265,-0.13287191092967987,-0.08501498401165009,-0.042184606194496155
1834763450812316,1.2517077922821045,9.109429359436035,-0.2813090980052948,-0.13807299733161926,-0.08820894360542297,-0.05204571783542633
1834763452799816,1.2423608303070068,9.132673263549805,-0.2701617181301117,-0.143413707613945,-0.08983209729194641,-0.06633996218442917
1834763454806066,1.2247108221054077,9.158875465393066,-0.250596284866333,-0.15002849698066711,-0.09094911068677902,-0.07782422751188278
1834763456799816,1.2182942628860474,9.176246643066406,-0.19862297177314758,-0.15189599990844727,-0.0930260494351387,-0.08997172117233276
1834763458806066,1.2028565406799316,9.18385124206543,-0.1346977800130844,-0.15254177153110504,-0.09588839113712311,-0.10306169092655182
1834763462799816,1.1811363697052002,9.173766136169434,0.01079306099563837,-0.1575508713722229,-0.09672614932060242,-0.12348204106092453
1834763460799816,1.1855320930480957,9.168067932128906,-0.051293376833200455,-0.1534842550754547,-0.09642943739891052,-0.11362093687057495
1834763466806066,1.1450413465499878,9.143025398254395,0.14458104968070984,-0.1638689637184143,-0.09889035671949387,-0.14385004341602325
1834763464799816,1.1666944026947021,9.159660339355469,0.06420291215181351,-0.16411331295967102,-0.09775589406490326,-0.13241812586784363
1834763468802941,1.1345452070236206,9.129138946533203,0.2085637003183365,-0.15865042805671692,-0.09737192094326019,-0.15388567745685577
1834763470801379,1.1094539165496826,9.112810134887695,0.2888939380645752,-0.14999359846115112,-0.09300859272480011,-0.16257742047309875
1834763472799816,1.0692696571350098,9.076590538024902,0.3669928312301636,-0.1488940417766571,-0.08897688239812851,-0.16971582174301147
1834763474799816,1.0393229722976685,9.063116073608398,0.4255741238594055,-0.14981906116008759,-0.08632398396730423,-0.1751437932252884
1834763476806066,0.9984108209609985,9.045485496520996,0.5132785439491272,-0.14878931641578674,-0.08377580344676971,-0.18270106613636017
1834763478799816,0.9779643416404724,9.035305976867676,0.5716108679771423,-0.14646802842617035,-0.07859217375516891,-0.18744836747646332
1834763482799816,0.8898003101348877,9.018766403198242,0.6959944367408752,-0.13552480936050415,-0.06736970692873001,-0.19907225668430328
1834763480799816,0.9328192472457886,9.026867866516113,0.6161047220230103,-0.1414065808057785,-0.07354817539453506,-0.19196876883506775
1834763484799816,0.8626596331596375,9.022673606872559,0.7593258619308472,-0.1313185691833496,-0.059149209409952164,-0.19849629700183868
1834763486806066,0.8336801528930664,9.008997917175293,0.789119303226471,-0.12798500061035156,-0.05284857004880905,-0.19399334490299225
1834763488809191,0.7811322808265686,9.001614570617676,0.8538393378257751,-0.12089895457029343,-0.048747044056653976,-0.19771090149879456
1834763490810754,0.75749671459198,8.985870361328125,0.8798595666885376,-0.11398745328187943,-0.042760565876960754,-0.19750145077705383
1834763494801379,0.7054275870323181,8.960271835327148,0.9554014205932617,-0.09391617029905319,-0.03574434295296669,-0.19474384188652039
1834763496799816,0.6782773733139038,8.95553970336914,0.9895523190498352,-0.0855560377240181,-0.029251718893647194,-0.19538961350917816
1834763498809191,0.6517017483711243,8.9544677734375,1.025857925415039,-0.07590436935424805,-0.024731315672397614,-0.1918291300535202
1834763492799816,0.7350199222564697,8.96900463104248,0.9125643372535706,-0.10327113419771194,-0.03911282867193222,-0.19348719716072083
1834763500806066,0.6202322840690613,8.953797340393066,1.0543298721313477,-0.06408849358558655,-0.01944296807050705,-0.1917942315340042
1834763502799816,0.596750020980835,8.949468612670898,1.0819971561431885,-0.05178391933441162,-0.012548916973173618,-0.19118335843086243
1834763504799816,0.5510590076446533,8.928227424621582,1.1093294620513916,-0.041922807693481445,-0.0060388389974832535,-0.18818140029907227
1834763506806066,0.5292526483535767,8.901728630065918,1.1311453580856323,-0.03118903376162052,-9.250245057046413E-4,-0.1869422197341919
1834763508799816,0.5133360028266907,8.886165618896484,1.1554512977600098,-0.018849555402994156,0.006457718089222908,-0.1809208244085312
1834763510801379,0.4963371455669403,8.865030288696289,1.1530284881591797,-0.004764748737215996,0.013526301831007004,-0.17606881260871887
1834763512799816,0.44252508878707886,8.83584976196289,1.1590425968170166,0.008691739290952682,0.022514747455716133,-0.1693841964006424
1834763514806066,0.40470626950263977,8.811399459838867,1.156734585762024,0.020647244527935982,0.03309144079685211,-0.1635897159576416
1834763518809191,0.3347381353378296,8.769367218017578,1.0983543395996094,0.03871140256524086,0.048747044056653976,-0.1515120267868042
1834763520799816,0.29711082577705383,8.760154724121094,1.066415786743164,0.052726395428180695,0.05244714394211769,-0.14339624345302582
1834763516799816,0.36710771918296814,8.784144401550293,1.1299387216567993,0.030630528926849365,0.0414690226316452,-0.1621410846710205
1834763522799816,0.24635377526283264,8.754244804382324,1.0012264251708984,0.06974335759878159,0.05642649531364441,-0.1419650763273239
1834763524799816,0.2257157564163208,8.754944801330566,0.9445509314537048,0.08051203936338425,0.06325073540210724,-0.12924163043498993
1834763526807629,0.20859242975711823,8.747809410095215,0.8905951380729675,0.09080947935581207,0.07002261281013489,-0.10988593101501465
1834763528812316,0.16912640631198883,8.731720924377441,0.8089816570281982,0.10353293269872665,0.07557275891304016,-0.10271262377500534
1834763530802941,0.1510358303785324,8.712039947509766,0.7519229650497437,0.11510446667671204,0.08319984376430511,-0.09756390750408173
1834763532799816,0.1293635070323944,8.708381652832031,0.6983311772346497,0.12400564551353455,0.08527678996324539,-0.08354891091585159
1834763534801379,0.1130446270108223,8.6936616897583,0.6375184059143066,0.13243559002876282,0.08454374969005585,-0.07611380517482758
1834763536799816,0.09657251834869385,8.704598426818848,0.5923734307289124,0.13732250034809113,0.08536405116319656,-0.06663667410612106
1834763538801379,0.08853758126497269,8.710144996643066,0.5368757843971252,0.1428202986717224,0.0863937959074974,-0.05251695588231087
1834763540799816,0.07681556791067123,8.699963569641113,0.4638718068599701,0.15400785207748413,0.08780751377344131,-0.04501204192638397
1834763542799816,0.06846459209918976,8.704972267150879,0.4051659405231476,0.16629497706890106,0.09002408385276794,-0.03790855035185814
1834763544799816,0.06402094662189484,8.727248191833496,0.3713119626045227,0.1785471886396408,0.09176941215991974,-0.02768092229962349
1834763546807629,0.07421068102121353,8.761810302734375,0.3016693890094757,0.18599973618984222,0.09054768085479736,-0.01679006777703762
1834763548799816,0.08690952509641647,8.782554626464844,0.2688497006893158,0.1897871047258377,0.09023351967334747,-0.00823795422911644
1834763550801379,0.10125558078289032,8.806563377380371,0.24766580760478973,0.19561649858951569,0.08887216448783875,-5.934119690209627E-4
1834763554799816,0.159990131855011,8.898567199707031,0.16341862082481384,0.21392500400543213,0.0823969915509224,0.016109388321638107
1834763552799816,0.13406571745872498,8.864339828491211,0.19446665048599243,0.20457004010677338,0.08576548099517822,0.008098327554762363
1834763556806066,0.19567331671714783,8.952800750732422,0.12705549597740173,0.22169172763824463,0.0794822946190834,0.02139773592352867
1834763558799816,0.21604318916797638,8.994114875793457,0.09751104563474655,0.2292490005493164,0.07770206034183502,0.025586526840925217
1834763560799816,0.23293668031692505,9.026810646057129,0.07385633140802383,0.2375916689634323,0.07618362456560135,0.030717793852090836
1834763562799816,0.26652252674102783,9.052045822143555,0.05416642129421234,0.24813346564769745,0.07272786647081375,0.0351334773004055
1834763564799816,0.2937493920326233,9.067598342895508,0.03443819656968117,0.25590017437934875,0.06675884127616882,0.04038691893219948
1834763566806066,0.310729056596756,9.088706016540527,0.0169413723051548,0.2652551531791687,0.06103416532278061,0.04426154866814613
1834763568807629,0.3356192111968994,9.122636795043945,-0.01706586964428425,0.27090999484062195,0.057508599013090134,0.04742059484124184
1834763570807629,0.3522828221321106,9.142134666442871,-0.04416823014616966,0.27440065145492554,0.05661848187446594,0.05173156037926674
1834763572799816,0.37511396408081055,9.163949966430664,-0.07826166599988937,0.28066638112068176,0.055257122963666916,0.05483824387192726
1834763574806066,0.41247308254241943,9.208587646484375,-0.09233956784009933,0.2871590256690979,0.05605997517704964,0.05670574679970741
1834763576799816,0.43329307436943054,9.23340129852295,-0.12223836779594421,0.29197612404823303,0.058573249727487564,0.060964349657297134
1834763578807629,0.4514315128326416,9.267427444458008,-0.1406354010105133,0.2923251986503601,0.05836381018161774,0.06103416532278061
1834763582799816,0.5050041675567627,9.333584785461426,-0.1779370754957199,0.2992017865180969,0.06300638616085052,0.06319837272167206
1834763584799816,0.5283141732215881,9.3742094039917,-0.1906646490097046,0.30140089988708496,0.06391395628452301,0.05797983705997467
1834763580801379,0.48207730054855347,9.302067756652832,-0.1678910106420517,0.2942974269390106,0.06065019220113754,0.062255892902612686
1834763588799816,0.5818101763725281,9.47871208190918,-0.18929517269134521,0.30457741022109985,0.06866125017404556,0.06328564137220383
1834763586806066,0.5549951195716858,9.44003963470459,-0.20291337370872498,0.30251792073249817,0.06646213680505753,0.06010913848876953
1834763590810754,0.6172826290130615,9.525369644165039,-0.18323305249214172,0.3035476505756378,0.07098253816366196,0.06101670861244202
1834763592799816,0.6466547250747681,9.570246696472168,-0.18326178193092346,0.3048042953014374,0.07426375895738602,0.05656611919403076
1834763594806066,0.6704244017601013,9.614233016967773,-0.20532673597335815,0.3081553280353546,0.0789412409067154,0.05279621109366417
1834763596799816,0.7219284176826477,9.678991317749023,-0.2445724904537201,0.3101450204849243,0.08370599150657654,0.04878195375204086
1834763600799816,0.7793413400650024,9.777450561523438,-0.26456886529922485,0.3079284429550171,0.08768533915281296,0.03862413763999939
1834763598813879,0.7516165375709534,9.727373123168945,-0.2550112009048462,0.3090803623199463,0.08674286305904388,0.04403465613722801
1834763602799816,0.7928255200386047,9.843798637390137,-0.30384334921836853,0.30644491314888,0.08787732571363449,0.032271139323711395
1834763604799816,0.8050934672355652,9.885390281677246,-0.3440755009651184,0.30569443106651306,0.08766788989305496,0.025446901097893715
1834763606806066,0.8230403661727905,9.933064460754395,-0.36504873633384705,0.30531045794487,0.0878598764538765,0.0165631752461195
1834763608802941,0.8387367725372314,9.99367618560791,-0.3799598217010498,0.30031880736351013,0.08826129883527756,0.010838494636118412
1834763610799816,0.8350783586502075,10.043177604675293,-0.3971022963523865,0.29597294330596924,0.08665559440851212,0.0031415927223861217
1834763612799816,0.8376162648200989,10.073958396911621,-0.3967766761779785,0.2925695478916168,0.08705702424049377,-0.011554080061614513
1834763614804504,0.8358924388885498,10.121094703674316,-0.39953479170799255,0.28872981667518616,0.08724901080131531,-0.01516691129654646
1834763616799816,0.8372523188591003,10.14346694946289,-0.4031548500061035,0.28468066453933716,0.0852418839931488,-0.010402162559330463
1834763618799816,0.8355093598365784,10.176583290100098,-0.40116286277770996,0.2811201810836792,0.08632398396730423,-0.010978121310472488
1834763620810754,0.8246013522148132,10.22239875793457,-0.39170098304748535,0.27869418263435364,0.0895702987909317,-0.015463616698980331
1834763622809191,0.8089816570281982,10.255247116088867,-0.3754587173461914,0.2756747603416443,0.08854055404663086,-0.030927233397960663
1834763624799816,0.7970393300056458,10.288420677185059,-0.3812143802642822,0.27263787388801575,0.08710937947034836,-0.052290063351392746
1834763626806066,0.7707797288894653,10.337061882019043,-0.37456804513931274,0.26719245314598083,0.0872664600610733,-0.05359905958175659
1834763630801379,0.7378546595573425,10.403610229492188,-0.33387622237205505,0.25939083099365234,0.08077383786439896,-0.06897541135549545
1834763632799816,0.7365521788597107,10.437857627868652,-0.3146076798439026,0.25534167885780334,0.08045967668294907,-0.0728849470615387
1834763628799816,0.7581478953361511,10.366710662841797,-0.3590727746486664,0.2626197040081024,0.08316493779420853,-0.05426228791475296
1834763634799816,0.720271646976471,10.490118026733398,-0.28944939374923706,0.24879668653011322,0.07668976485729218,-0.07426375895738602
1834763636802941,0.6980821490287781,10.537599563598633,-0.2605178952217102,0.24155357480049133,0.07208209484815598,-0.08126252889633179
1834763638812316,0.6737666726112366,10.571578025817871,-0.25179341435432434,0.23757421970367432,0.0694291964173317,-0.08693484961986542
1834763640799816,0.6593440175056458,10.60517406463623,-0.2314043939113617,0.23523548245429993,0.06717772036790848,-0.09011135250329971
1834763642799816,0.6399988532066345,10.638596534729004,-0.18232324719429016,0.23136083781719208,0.06363470107316971,-0.09143780171871185
1834763644799816,0.6183552742004395,10.661160469055176,-0.1445523202419281,0.2260899543762207,0.06033603101968765,-0.09480628371238708
1834763650806066,0.5725494027137756,10.760748863220215,-0.025608381256461143,0.21476276218891144,0.05590289458632469,-0.10677924007177353
1834763646806066,0.5949112772941589,10.695042610168457,-0.10599610209465027,0.22190116345882416,0.057159531861543655,-0.10252063721418381
1834763648812316,0.5717832446098328,10.73628044128418,-0.04827668517827988,0.21856757998466492,0.05553637817502022,-0.10435323417186737
1834763652799816,0.5693315863609314,10.778878211975098,0.0031124623492360115,0.20924752950668335,0.055204764008522034,-0.11732102930545807
1834763654807629,0.568077027797699,10.821743965148926,0.07646122574806213,0.20343557000160217,0.05274384841322899,-0.11458086222410202
1834763656799816,0.5577053427696228,10.851422309875488,0.11117714643478394,0.19687314331531525,0.04879940673708916,-0.10150834918022156
1834763658799816,0.5472283363342285,10.889729499816895,0.1741638034582138,0.1941329687833786,0.04977678880095482,-0.09574875980615616
1834763660799816,0.5604634284973145,10.924015045166016,0.22380998730659485,0.19542451202869415,0.052377332001924515,-0.09550441801548004
1834763662799816,0.5580213665962219,10.953195571899414,0.28232425451278687,0.19458675384521484,0.050108402967453,-0.09658651798963547
1834763664799816,0.5491724014282227,11.001873970031738,0.3666193187236786,0.1941678822040558,0.04893903061747551,-0.10072295367717743
1834763666802941,0.5454949140548706,11.049077987670898,0.4208432137966156,0.19425514340400696,0.048956483602523804,-0.10583676397800446
1834763668804504,0.5501779913902283,11.092595100402832,0.49418237805366516,0.19278906285762787,0.04686209186911583,-0.11264354735612869
1834763670806066,0.5559144616127014,11.134512901306152,0.5772324800491333,0.19264943897724152,0.04729842394590378,-0.12178907543420792
1834763672799816,0.5603198409080505,11.176448822021484,0.6583096981048584,0.19107864797115326,0.04930555075407028,-0.12346459180116653
1834763674799816,0.5722237825393677,11.208599090576172,0.7278085947036743,0.19148007035255432,0.05124286562204361,-0.12400564551353455
1834763676804504,0.5809769630432129,11.24435806274414,0.820512056350708,0.1952848881483078,0.05492551252245903,-0.13058553636074066
1834763678802941,0.5819059610366821,11.273031234741211,0.8808363676071167,0.20111428201198578,0.05679301545023918,-0.1333256959915161
1834763680799816,0.5943557620048523,11.293909072875977,0.9367457628250122,0.20408134162425995,0.05834635719656944,-0.1359262466430664
1834763682802941,0.6083666086196899,11.331268310546875,0.9956335425376892,0.2064899057149887,0.060929443687200546,-0.1402546614408493
1834763684799816,0.6045646071434021,11.345375061035156,1.0381641387939453,0.21280799806118011,0.06405358016490936,-0.14245377480983734
1834763686806066,0.6049477458000183,11.34337329864502,1.0656113624572754,0.22202333807945251,0.06684610992670059,-0.1468694508075714
1834763688812316,0.5770409107208252,11.361128807067871,1.0930010080337524,0.2339090257883072,0.07244861871004105,-0.14582225680351257
1834763690809191,0.5485977530479431,11.386037826538086,1.1085920333862305,0.24446827173233032,0.07710864394903183,-0.14679963886737823
1834763692799816,0.5142841339111328,11.420428276062012,1.1181496381759644,0.2540326714515686,0.07768460363149643,-0.15627677738666534
1834763696799816,0.4316362738609314,11.52849292755127,1.0944949388504028,0.2713288962841034,0.08340928703546524,-0.1459967941045761
1834763694802941,0.47060427069664,11.482333183288574,1.1253036260604858,0.26370179653167725,0.08127998560667038,-0.15601497888565063
1834763698812316,0.3748266398906708,11.572067260742188,1.0248045921325684,0.27700120210647583,0.08419468253850937,-0.1477770209312439
1834763700799816,0.3310127556324005,11.577880859375,0.9464183449745178,0.28440138697624207,0.08969247341156006,-0.14927801489830017
1834763702806066,0.28336814045906067,11.580829620361328,0.8711446523666382,0.2917492389678955,0.09608037769794464,-0.14945253729820251
1834763704799816,0.24849897623062134,11.604820251464844,0.7957368493080139,0.2958158552646637,0.09934414178133011,-0.156137153506279
1834763706799816,0.22072623670101166,11.633070945739746,0.6544023156166077,0.2954667806625366,0.10548769682645798,-0.14994123578071594
1834763708807629,0.19425594806671143,11.647418022155762,0.541568398475647,0.29619982838630676,0.11342895030975342,-0.14439108967781067
1834763710804504,0.17061081528663635,11.655702590942383,0.35413116216659546,0.2938785254955292,0.12075933068990707,-0.14336134493350983
1834763712799816,0.15602533519268036,11.679394721984863,0.19909223914146423,0.2905973196029663,0.12599532306194305,-0.13924236595630646
1834763714799816,0.13795390725135803,11.696566581726074,0.0665779560804367,0.2898293733596802,0.12716469168663025,-0.13744467496871948
1834763716804504,0.1246517151594162,11.737592697143555,-0.12706507742404938,0.2837381660938263,0.12746138870716095,-0.136537104845047
1834763718810754,0.10434888303279877,11.76375675201416,-0.26952967047691345,0.2713463306427002,0.12402309477329254,-0.1324704885482788
1834763720799816,0.06823474913835526,11.787440299987793,-0.41835322976112366,0.25844836235046387,0.12046262621879578,-0.12920671701431274
1834763722799816,0.03615244850516319,11.830516815185547,-0.5966829061508179,0.24288001656532288,0.11714649945497513,-0.12484340369701385
1834763724799816,0.018071433529257774,11.868660926818848,-0.720463216304779,0.22446680068969727,0.11037462204694748,-0.12021827697753906
1834763726806066,0.009806649759411812,11.903301239013672,-0.8084453344345093,0.20579177141189575,0.10093238949775696,-0.11847294867038727
1834763728810754,0.01904826983809471,11.949087142944336,-0.8968487977981567,0.18369589745998383,0.08803440630435944,-0.11157889664173126
1834763730809191,0.03740701079368591,11.993073463439941,-0.9414862990379333,0.16224581003189087,0.07365289330482483,-0.10807078331708908
1834763732799816,0.07252515107393265,12.03630256652832,-0.9415150284767151,0.13843952119350433,0.05885250121355057,-0.10897836089134216
1834763734806066,0.13536816835403442,12.07337474822998,-0.8773407936096191,0.12000884115695953,0.04680972918868065,-0.10615092515945435
1834763736799816,0.17298585176467896,12.092499732971191,-0.8035228252410889,0.10583676397800446,0.03618067502975464,-0.10349802672863007
1834763738799816,0.2418047934770584,12.10799503326416,-0.6633758544921875,0.09080947935581207,0.020577432587742805,-0.1045626774430275
1834763740799816,0.3010086119174957,12.114516258239746,-0.5532521605491638,0.0780685767531395,0.0018500490114092827,-0.10838494449853897
1834763742801379,0.33898064494132996,12.129610061645508,-0.428054541349411,0.06558947265148163,-0.018168877810239792,-0.10583676397800446
1834763744799816,0.370248943567276,12.160801887512207,-0.27375301718711853,0.05712462589144707,-0.040055304765701294,-0.09855873882770538
1834763746807629,0.41475236415863037,12.212353706359863,-0.05453033745288849,0.05071926862001419,-0.06410594284534454,-0.10412634164094925
1834763750809191,0.4550324082374573,12.316884994506836,0.341786652803421,0.04864232614636421,-0.10363765060901642,-0.11250392347574234
1834763748799816,0.43106165528297424,12.26439380645752,0.1168370470404625,0.048345621675252914,-0.08473573625087738,-0.11086331307888031
1834763752799816,0.47853386402130127,12.342799186706543,0.5114014744758606,0.04939281940460205,-0.1255589872598648,-0.11932816356420517
1834763754799816,0.48156973719596863,12.359587669372559,0.6894726753234863,0.05037020146846771,-0.1454208344221115,-0.12969541549682617
1834763758818566,0.5304402112960815,12.316568374633789,1.0495030879974365,0.05368632823228836,-0.17587682604789734,-0.1402372121810913
1834763756804504,0.5084614157676697,12.345029830932617,0.907536506652832,0.05176646634936333,-0.16121606528759003,-0.1370781660079956
1834763762799816,0.5550909042358398,12.182626724243164,1.3931858539581299,0.05801474303007126,-0.19753636419773102,-0.14734070003032684
1834763764799816,0.553778886795044,12.118271827697754,1.5158073902130127,0.05836381018161774,-0.19886282086372375,-0.15086625516414642
1834763766799816,0.5562113523483276,12.047574996948242,1.6235177516937256,0.05794493108987808,-0.19474384188652039,-0.15624187886714935
1834763760799816,0.5524859428405762,12.280234336853027,1.2058061361312866,0.05614724010229111,-0.18901915848255157,-0.14454816281795502
1834763768801379,0.5656828284263611,11.949767112731934,1.7605619430541992,0.05562364310026169,-0.1869596689939499,-0.15809191763401031
1834763770799816,0.5700019598007202,11.888752937316895,1.8671612739562988,0.05235987901687622,-0.172805055975914,-0.16083209216594696
1834763772799816,0.5534436702728271,11.821600914001465,1.9732245206832886,0.04977678880095482,-0.15390312671661377,-0.1682148277759552
